cue,tar,corrAns,targOrientation,pracLoop.thisRepN,pracLoop.thisTrialN,pracLoop.thisN,pracLoop.thisIndex,blockLoop.thisRepN,blockLoop.thisTrialN,blockLoop.thisN,blockLoop.thisIndex,mainLoop.thisRepN,mainLoop.thisTrialN,mainLoop.thisN,mainLoop.thisIndex,thisRow.t,notes,PracInstruc.started,pracText1.started,pracResp1.started,PracInstruc.stopped,PracInstruct2.started,practInst2.started,practResp2.started,PracInstruct2.stopped,fixation.started,image.started,image.stopped,fixation.stopped,fixFuration,trial.started,cues.started,fixationshort.started,cues.stopped,target.started,resp.started,fixationshort.stopped,trial.stopped,resp.keys,resp.corr,resp.rt,resp.duration,feedback.started,text.started,feedback.stopped,text.stopped,MainInstruc.started,mainInst.started,instResp.started,MainInstruc.stopped,instResp.keys,instResp.rt,instResp.duration,Rest.started,rest.started,restResp.started,Rest.stopped,target.stopped,resp.stopped,MentalFatigue.started,FatigueQ.started,textbox.started,FatigueEnd.started,EndClick.started,MentalFatigue.stopped,textbox.text,EndClick.x,EndClick.y,EndClick.leftButton,EndClick.midButton,EndClick.rightButton,EndClick.time,EndClick.clicked_name,End.started,endText.started,endKey.started,End.stopped,participant,week,age,gender,race/ethnicity,cognitive health history,date,expName,psychopyVersion,frameRate,expStart,
blank.png,congRight.png,right,0,0,0,0,11,,,,,,,,,59.797786000184715,,0.0016453005373477936,0.00539650022983551,0.00539650022983551,27.129949900321662,27.129980000667274,27.160829400643706,27.160829400643706,59.7472416004166,59.773943200707436,59.797786000184715,60.362229799851775,60.346578599885106,0.55,60.34665019996464,60.362229799851775,60.362229799851775,60.4614891000092,60.861785400658846,60.861785400658846,60.861785400658846,61.53244860004634,right,1,0.656437000259757,None,61.53521359991282,61.5597240999341,62.54525730013847,,,,,,,,,,,,,,,,,,,,,,,,,,,,,,,,,Eclipse,1,24,Female,Hispanic/Latino,,2024-12-05_17h53.38.972,dissANT,2023.2.3,60.08687382998984,2024-12-05 18h01.30.726646 -0600,
lower.png,incongLeft.png,right,180,0,1,1,20,,,,,,,,,62.56153650023043,,,,,,,,,,62.5464090006426,62.56153650023043,62.96160040050745,62.94692500028759,0.4,62.94699470046908,62.96160040050745,62.96160040050745,63.06160259991884,63.461102600209415,63.461102600209415,63.461102600209415,64.46523280069232,right,1,0.9875092003494501,None,64.46653350070119,64.48146759998053,65.47848490066826,,,,,,,,,,,,,,,,,,,,,,,,,,,,,,,,,Eclipse,1,24,Female,Hispanic/Latino,,2024-12-05_17h53.38.972,dissANT,2023.2.3,60.08687382998984,2024-12-05 18h01.30.726646 -0600,
blank.png,incongLeft.png,left,0,0,2,2,19,,,,,,,,,65.49495860002935,,,,,,,,,,65.47971370071173,65.49495860002935,65.89506360050291,65.87985000014305,0.4,65.87990990001708,65.89506360050291,65.89506360050291,65.99486360047013,66.39502550009638,66.39502550009638,66.39502550009638,67.34728450048715,left,1,0.93838319927454,None,67.34826400037855,67.36145780049264,68.34505849983543,68.36128369998187,,,,,,,,,,,,,,,,,,,,,,,,,,,,,,,,Eclipse,1,24,Female,Hispanic/Latino,,2024-12-05_17h53.38.972,dissANT,2023.2.3,60.08687382998984,2024-12-05 18h01.30.726646 -0600,
blank.png,congRight.png,left,180,0,3,3,15,,,,,,,,,68.36128369998187,,,,,,,,,,68.34533220063895,68.36128369998187,68.86119010020047,68.8467732006684,0.5,68.84683520067483,68.86119010020047,68.86119010020047,68.96152530051768,69.36171070020646,69.36171070020646,69.36171070020646,69.99880480021238,left,1,0.6209374004974961,None,69.9998738002032,70.01332479994744,71.01193840056658,,,,,,,,,,,,,,,,,,,,,,,,,,,,,,,,,Eclipse,1,24,Female,Hispanic/Latino,,2024-12-05_17h53.38.972,dissANT,2023.2.3,60.08687382998984,2024-12-05 18h01.30.726646 -0600,
upper.png,congLeft.png,left,0,0,4,4,0,,,,,,,,,71.0279680006206,,,,,,,,,,71.01308360043913,71.0279680006206,71.5284970998764,71.51384750008583,0.5,71.51392289996147,71.5284970998764,71.5284970998764,71.62808779999614,72.02815170027316,72.02815170027316,72.02815170027316,72.58073130063713,left,1,0.5377115998417139,None,72.58181150071323,72.59581070020795,73.59469499997795,,,,,,,,,,,,,,,,,,,,,,,,,,,,,,,,,Eclipse,1,24,Female,Hispanic/Latino,,2024-12-05_17h53.38.972,dissANT,2023.2.3,60.08687382998984,2024-12-05 18h01.30.726646 -0600,
centre.png,congLeft.png,right,180,0,5,5,6,,,,,,,,,73.61114410031587,,,,,,,,,,73.59561580047011,73.61114410031587,74.11103930044919,74.09679810050875,0.5,74.0968748005107,74.11103930044919,74.11103930044919,74.21097720041871,74.6109520001337,74.6109520001337,74.6109520001337,75.16544330026954,right,1,0.5518872002139688,None,75.16653280053288,75.17753070034087,76.16241030022502,76.17779969982803,,,,,,,,,,,,,,,,,,,,,,,,,,,,,,,,Eclipse,1,24,Female,Hispanic/Latino,,2024-12-05_17h53.38.972,dissANT,2023.2.3,60.08687382998984,2024-12-05 18h01.30.726646 -0600,
blank.png,congLeft.png,right,180,0,6,6,7,,,,,,,,,76.17779969982803,,,,,,,,,,76.16329549998045,76.17779969982803,76.67791510000825,76.66264680027962,0.5,76.66271490044892,76.67791510000825,76.67791510000825,76.77787610050291,77.17794639989734,77.17794639989734,77.17794639989734,77.83000570069999,right,1,0.6424595005810261,None,77.83104830048978,77.84422999992967,78.82952050026506,78.84455179981887,,,,,,,,,,,,,,,,,,,,,,,,,,,,,,,,Eclipse,1,24,Female,Hispanic/Latino,,2024-12-05_17h53.38.972,dissANT,2023.2.3,60.08687382998984,2024-12-05 18h01.30.726646 -0600,
centre.png,incongLeft.png,right,180,0,7,7,22,,,,,,,,,78.84455179981887,,,,,,,,,,78.83041220065206,78.84455179981887,79.34435150027275,79.32753400038928,0.5,79.327546200715,79.34435150027275,79.34435150027275,79.44435490015894,79.8274300005287,79.8274300005287,79.84385850001127,80.56325600016862,right,1,0.7221696004271507,None,80.56408559996635,80.57751760073006,81.56136810034513,81.57781040016562,,,,,,,,,,,,,,,,,,,,,,,,,,,,,,,,Eclipse,1,24,Female,Hispanic/Latino,,2024-12-05_17h53.38.972,dissANT,2023.2.3,60.08687382998984,2024-12-05 18h01.30.726646 -0600,
both.png,incongLeft.png,right,180,0,8,8,21,,,,,,,,,81.57781040016562,,,,,,,,,,81.56184780038893,81.57781040016562,81.97785359993577,81.96151239983737,0.4,81.96152850054204,81.97785359993577,81.97785359993577,82.07758620008826,82.46126950066537,82.46126950066537,82.4777517998591,83.21272539999336,right,1,0.7457926003262401,None,83.21353420056403,83.2274839002639,84.21215790044516,84.22729820013046,,,,,,,,,,,,,,,,,,,,,,,,,,,,,,,,Eclipse,1,24,Female,Hispanic/Latino,,2024-12-05_17h53.38.972,dissANT,2023.2.3,60.08687382998984,2024-12-05 18h01.30.726646 -0600,
both.png,congRight.png,right,0,0,9,9,9,,,,,,,,,84.22729820013046,,,,,,,,,,84.21285020001233,84.22729820013046,84.62728819996119,84.61184780020267,0.4,84.6118964003399,84.62728819996119,84.62728819996119,84.72777160070837,85.11130150035024,85.11130150035024,85.12767110019922,85.78109060041606,right,1,0.6656658006832004,None,85.78219579998404,85.79388030059636,86.77925200015306,86.79447840061039,,,,,,,,,,,,,,,,,,,,,,,,,,,,,,,,Eclipse,1,24,Female,Hispanic/Latino,,2024-12-05_17h53.38.972,dissANT,2023.2.3,60.08687382998984,2024-12-05 18h01.30.726646 -0600,
centre.png,congRight.png,left,180,0,10,10,14,,,,,,,,,86.79447840061039,,,,,,,,,,86.7802496002987,86.79447840061039,87.29426460061222,87.27955180034041,0.5,87.27962010074407,87.29426460061222,87.29426460061222,87.39448009990156,87.79432949982584,87.79432949982584,87.79432949982584,88.38047710061073,left,1,0.5708576003089547,None,88.38164940010756,88.39401420019567,89.37749319989234,89.39380630012602,,,,,,,,,,,,,,,,,,,,,,,,,,,,,,,,Eclipse,1,24,Female,Hispanic/Latino,,2024-12-05_17h53.38.972,dissANT,2023.2.3,60.08687382998984,2024-12-05 18h01.30.726646 -0600,
centre.png,congRight.png,right,0,0,11,11,10,,,,,,,,,89.39380630012602,,,,,,,,,,89.37774310074747,89.39380630012602,89.79399420041591,89.77930309996009,0.4,89.7793800001964,89.79399420041591,89.79399420041591,89.89437740016729,90.29443929996341,90.29443929996341,90.29443929996341,90.81339689996094,right,1,0.5058097001165152,None,90.81441200058907,90.82723189983517,91.81070780009031,91.8270728001371,,,,,,,,,,,,,,,,,,,,,,,,,,,,,,,,Eclipse,1,24,Female,Hispanic/Latino,,2024-12-05_17h53.38.972,dissANT,2023.2.3,60.08687382998984,2024-12-05 18h01.30.726646 -0600,
centre.png,congLeft.png,left,0,0,12,12,2,,,,,,,,,91.8270728001371,,,,,,,,,,91.81098780035973,91.8270728001371,92.22712690010667,92.2117356006056,0.4,92.21178290061653,92.22712690010667,92.22712690010667,92.32770560029894,92.71042860019952,92.71042860019952,92.72750829998404,93.19676460046321,left,1,0.4792178999632597,None,93.19775340054184,93.21050189994276,94.1957533005625,94.21081960014999,,,,,,,,,,,,,,,,,,,,,,,,,,,,,,,,Eclipse,1,24,Female,Hispanic/Latino,,2024-12-05_17h53.38.972,dissANT,2023.2.3,60.08687382998984,2024-12-05 18h01.30.726646 -0600,
upper.png,congRight.png,right,0,0,13,13,8,,,,,,,,,94.21081960014999,,,,,,,,,,94.19667740073055,94.21081960014999,94.71098060067743,94.69612330012023,0.5,94.69618690013885,94.71098060067743,94.71098060067743,94.81063649989665,95.21093150041997,95.21093150041997,95.21093150041997,95.5967444004491,right,1,0.378443100489676,None,95.59780940040946,95.61190860066563,96.61104930005968,,,,,,,,,,,,,,,,,,,,,,,,,,,,,,,,,Eclipse,1,24,Female,Hispanic/Latino,,2024-12-05_17h53.38.972,dissANT,2023.2.3,60.08687382998984,2024-12-05 18h01.30.726646 -0600,
both.png,congLeft.png,left,0,0,14,14,1,,,,,,,,,96.62741590011865,,,,,,,,,,96.61188600026071,96.62741590011865,97.07740230020136,97.06245360057801,0.45,97.06251590047032,97.07740230020136,97.07740230020136,97.177092500031,97.5769875003025,97.5769875003025,97.5769875003025,97.96384890004992,left,1,0.38072239980101585,None,97.96497970074415,97.9773572999984,98.96189380064607,98.97738669998944,,,,,,,,,,,,,,,,,,,,,,,,,,,,,,,,Eclipse,1,24,Female,Hispanic/Latino,,2024-12-05_17h53.38.972,dissANT,2023.2.3,60.08687382998984,2024-12-05 18h01.30.726646 -0600,
blank.png,incongLeft.png,right,180,0,15,15,23,,,,,,,,,98.97738669998944,,,,,,,,,,98.96279770042747,98.97738669998944,99.47729950025678,99.46249209996313,0.5,99.46256500016898,99.47729950025678,99.47729950025678,99.57743910048157,99.97742410004139,99.97742410004139,99.97742410004139,100.83103160001338,right,1,0.8396707000210881,None,100.83234690036625,100.8448753003031,101.84368740022182,,,,,,,,,,,,,,,,,,,,,,,,,,,,,,,,,Eclipse,1,24,Female,Hispanic/Latino,,2024-12-05_17h53.38.972,dissANT,2023.2.3,60.08687382998984,2024-12-05 18h01.30.726646 -0600,
both.png,incongLeft.png,left,0,0,16,16,17,,,,,,,,,101.86013900022954,,,,,,,,,,101.8439116999507,101.86013900022954,102.4107467001304,102.39540449995548,0.55,102.39547210000455,102.4107467001304,102.4107467001304,102.51092809997499,102.91097389999777,102.91097389999777,102.91097389999777,103.5636729998514,left,1,0.6347265997901559,None,103.56492220051587,103.57684200070798,104.56221330072731,104.57674320042133,,,,,,,,,,,,,,,,,,,,,,,,,,,,,,,,Eclipse,1,24,Female,Hispanic/Latino,,2024-12-05_17h53.38.972,dissANT,2023.2.3,60.08687382998984,2024-12-05 18h01.30.726646 -0600,
upper.png,incongLeft.png,left,0,0,17,17,16,,,,,,,,,104.57674320042133,,,,,,,,,,104.56317640002817,104.57674320042133,104.97688250057399,104.96167650073767,0.4,104.96173550002277,104.97688250057399,104.97688250057399,105.07715020049363,105.47679400071502,105.47679400071502,105.47679400071502,106.0464099003002,left,1,0.5583197996020317,None,106.04739840049297,106.0603320999071,107.04436129983515,107.06049870047718,,,,,,,,,,,,,,,,,,,,,,,,,,,,,,,,Eclipse,1,24,Female,Hispanic/Latino,,2024-12-05_17h53.38.972,dissANT,2023.2.3,60.08687382998984,2024-12-05 18h01.30.726646 -0600,
lower.png,congRight.png,left,180,0,18,18,12,,,,,,,,,107.06049870047718,,,,,,,,,,107.0448002004996,107.06049870047718,107.46065410040319,107.44549399986863,0.4,107.44555140007287,107.46065410040319,107.46065410040319,107.56069790013134,107.96083230059594,107.96083230059594,107.96083230059594,108.47952650021762,left,1,0.5134624000638723,None,108.48043220024556,108.49346440006047,109.47839040029794,109.49387620016932,,,,,,,,,,,,,,,,,,,,,,,,,,,,,,,,Eclipse,1,24,Female,Hispanic/Latino,,2024-12-05_17h53.38.972,dissANT,2023.2.3,60.08687382998984,2024-12-05 18h01.30.726646 -0600,
blank.png,congLeft.png,left,0,0,19,19,3,,,,,,,,,109.49387620016932,,,,,,,,,,109.47918980009854,109.49387620016932,109.8939829999581,109.87849829997867,0.4,109.87854940071702,109.8939829999581,109.8939829999581,109.99348369985819,110.39350249990821,110.39350249990821,110.39350249990821,110.99649660009891,left,1,0.5865499004721642,None,110.99758690036833,111.01019570045173,111.99512880016118,112.01023889984936,,,,,,,,,,,,,,,,,,,,,,,,,,,,,,,,Eclipse,1,24,Female,Hispanic/Latino,,2024-12-05_17h53.38.972,dissANT,2023.2.3,60.08687382998984,2024-12-05 18h01.30.726646 -0600,
centre.png,incongLeft.png,left,0,0,20,20,18,,,,,,,,,112.01023889984936,,,,,,,,,,111.99605600070208,112.01023889984936,112.51030089985579,112.49583290051669,0.5,112.4959102999419,112.51030089985579,112.51030089985579,112.61044280044734,113.01046290062368,113.01046290062368,113.01046290062368,113.62976260017604,left,1,0.6034131003543735,None,113.63072780054063,113.6433942001313,114.62796539999545,114.64341189991683,,,,,,,,,,,,,,,,,,,,,,,,,,,,,,,,Eclipse,1,24,Female,Hispanic/Latino,,2024-12-05_17h53.38.972,dissANT,2023.2.3,60.08687382998984,2024-12-05 18h01.30.726646 -0600,
lower.png,congLeft.png,right,180,0,21,21,4,,,,,,,,,114.64341189991683,,,,,,,,,,114.62888270057738,114.64341189991683,115.1437995005399,115.12826659996063,0.5,115.12833019997925,115.1437995005399,115.1437995005399,115.24361350014806,115.64356360025704,115.64356360025704,115.64356360025704,116.18117280025035,right,1,0.5229590004310012,None,116.18287000060081,116.19745970051736,117.19333630055189,,,,,,,,,,,,,,,,,,,,,,,,,,,,,,,,,Eclipse,1,24,Female,Hispanic/Latino,,2024-12-05_17h53.38.972,dissANT,2023.2.3,60.08687382998984,2024-12-05 18h01.30.726646 -0600,
both.png,congRight.png,left,180,0,22,22,13,,,,,,,,,117.21018880046904,,,,,,,,,,117.19398509990424,117.21018880046904,117.61020630039275,117.59609610028565,0.4,117.59618380013853,117.61020630039275,117.61020630039275,117.71040020044893,118.11058610025793,118.11058610025793,118.11058610025793,118.5628096004948,left,1,0.4373057000339031,None,118.56385530065745,118.57652730029076,119.5614231005311,119.57683050073683,,,,,,,,,,,,,,,,,,,,,,,,,,,,,,,,Eclipse,1,24,Female,Hispanic/Latino,,2024-12-05_17h53.38.972,dissANT,2023.2.3,60.08687382998984,2024-12-05 18h01.30.726646 -0600,
both.png,congLeft.png,right,180,0,23,23,5,,,,,,,,,119.57683050073683,,,,,,,,,,119.56228130031377,119.57683050073683,120.0267449002713,120.01225000061095,0.45,120.012336300686,120.0267449002713,120.0267449002713,120.12634200043976,120.52687729988247,120.52687729988247,120.52687729988247,120.9965538000688,right,1,0.45464800018817186,None,120.99761730059981,121.00997820030898,121.99551650043577,122.01047070045024,,,,,,,,,,,,,,,,,,,,,,,,,,,,,,,,Eclipse,1,24,Female,Hispanic/Latino,,2024-12-05_17h53.38.972,dissANT,2023.2.3,60.08687382998984,2024-12-05 18h01.30.726646 -0600,
,,,,,,,,,,,,,,,,,,,,,,,,,,,,,,,,,,,,,,,,,,,,,,,121.99571170005947,122.01047070045024,122.01047070045024,137.17998819984496,space,15.156842299737036,None,,,,,,,,,,,,,,,,,,,,,,,,,Eclipse,1,24,Female,Hispanic/Latino,,2024-12-05_17h53.38.972,dissANT,2023.2.3,60.08687382998984,2024-12-05 18h01.30.726646 -0600,
lower.png,congRight.png,left,180,,,,,0,0,0,0,0,0,0,12,137.20840079989284,,,,,,,,,,137.20349080022424,137.20840079989284,137.6594270998612,137.6447129007429,0.45,137.64477450028062,137.6594270998612,137.6594270998612,137.75981390010566,138.1600150000304,138.1600150000304,138.1600150000304,138.6634415006265,left,1,0.49938710033893585,None,,,,,,,,,,,,,,,,,,,,,,,,,,,,,,,,,,,,Eclipse,1,24,Female,Hispanic/Latino,,2024-12-05_17h53.38.972,dissANT,2023.2.3,60.08687382998984,2024-12-05 18h01.30.726646 -0600,
blank.png,congLeft.png,left,0,,,,,0,0,0,0,0,1,1,3,138.67600280046463,,,,,,,,,,138.66546870023012,138.67600280046463,139.22622050065547,139.20986830070615,0.55,139.2098790006712,139.22622050065547,139.22622050065547,139.3257519006729,139.71023340057582,139.71023340057582,139.72656850051135,140.29712999984622,left,1,0.5834627002477646,None,,,,,,,,,,,,,,,,,,,,,,,,,,,,,,,,,,,,Eclipse,1,24,Female,Hispanic/Latino,,2024-12-05_17h53.38.972,dissANT,2023.2.3,60.08687382998984,2024-12-05 18h01.30.726646 -0600,
centre.png,congLeft.png,right,180,,,,,0,0,0,0,0,2,2,6,140.30970670003444,,,,,,,,,,140.29868240002543,140.30970670003444,140.8597507001832,140.84475010074675,0.55,140.8448109002784,140.8597507001832,140.8597507001832,140.9596400000155,141.35940660070628,141.35940660070628,141.35940660070628,141.79402239993215,right,1,0.43234189972281456,None,,,,,,,,,,,,,,,,,,,,,,,,,,,,,,,,,,,,Eclipse,1,24,Female,Hispanic/Latino,,2024-12-05_17h53.38.972,dissANT,2023.2.3,60.08687382998984,2024-12-05 18h01.30.726646 -0600,
blank.png,neutralRight.png,right,0,,,,,0,0,0,0,0,3,3,43,141.8091315003112,,,,,,,,,,141.79492889996618,141.8091315003112,142.2599030006677,142.2445961004123,0.45,142.24465060047805,142.2599030006677,142.2599030006677,142.35987959988415,142.75982400029898,142.75982400029898,142.75982400029898,143.3455129005015,right,1,0.5792796006426215,None,,,,,,,,,,,,,,,,,,,,,,,,,,,,,,,,,,,,Eclipse,1,24,Female,Hispanic/Latino,,2024-12-05_17h53.38.972,dissANT,2023.2.3,60.08687382998984,2024-12-05 18h01.30.726646 -0600,
centre.png,neutralRight.png,left,180,,,,,0,0,0,0,0,4,4,46,143.35985290072858,,,,,,,,,,143.34686470031738,143.35985290072858,143.8096614005044,143.794763000682,0.45,143.79482430033386,143.8096614005044,143.8096614005044,143.90971550066024,144.3098439006135,144.3098439006135,144.3098439006135,144.745469099842,left,1,0.42172709945589304,None,,,,,,,,,,,,,,,,,,,,,,,,,,,,,,,,,,,,Eclipse,1,24,Female,Hispanic/Latino,,2024-12-05_17h53.38.972,dissANT,2023.2.3,60.08687382998984,2024-12-05 18h01.30.726646 -0600,
blank.png,congRight.png,right,0,,,,,0,0,0,0,0,5,5,11,144.75968990009278,,,,,,,,,,144.74664080049843,144.75968990009278,145.15965620055795,145.14461540058255,0.4,145.14466820005327,145.15965620055795,145.15965620055795,145.25908370036632,145.6594926007092,145.6594926007092,145.6594926007092,146.11222000047565,right,1,0.44202829990535975,None,,,,,,,,,,,,,,,,,,,,,,,,,,,,,,,,,,,,Eclipse,1,24,Female,Hispanic/Latino,,2024-12-05_17h53.38.972,dissANT,2023.2.3,60.08687382998984,2024-12-05 18h01.30.726646 -0600,
centre.png,incongLeft.png,left,0,,,,,0,0,0,0,0,6,6,18,146.12616610061377,,,,,,,,,,146.11386440042406,146.12616610061377,146.5761639000848,146.56149489991367,0.45,146.56155529990792,146.5761639000848,146.5761639000848,146.67619690019637,147.0762654002756,147.0762654002756,147.0762654002756,147.71318150032312,left,1,0.62943259999156,None,,,,,,,,,,,,,,,,,,,,,,,,,,,,,,,,,,,,Eclipse,1,24,Female,Hispanic/Latino,,2024-12-05_17h53.38.972,dissANT,2023.2.3,60.08687382998984,2024-12-05 18h01.30.726646 -0600,
both.png,neutralLeft.png,left,0,,,,,0,0,0,0,0,7,7,33,147.7260936005041,,,,,,,,,,147.71495330054313,147.7260936005041,148.1759646004066,148.16087769996375,0.45,148.16094200033695,148.1759646004066,148.1759646004066,148.27620540000498,148.6763035999611,148.6763035999611,148.6763035999611,149.1629993999377,left,1,0.46902209986001253,None,,,,,,,,,,,,,,,,,,,,,,,,,,,,,,,,,,,,Eclipse,1,24,Female,Hispanic/Latino,,2024-12-05_17h53.38.972,dissANT,2023.2.3,60.08687382998984,2024-12-05 18h01.30.726646 -0600,
upper.png,neutralRight.png,right,0,,,,,0,0,0,0,0,8,8,40,149.1762371007353,,,,,,,,,,149.16482270043343,149.1762371007353,149.72632750030607,149.71126540005207,0.55,149.71131619997323,149.72632750030607,149.72632750030607,149.82621250022203,150.22626840043813,150.22626840043813,150.22626840043813,150.6451096003875,right,1,0.40980680007487535,None,,,,,,,,,,,,,,,,,,,,,,,,,,,,,,,,,,,,Eclipse,1,24,Female,Hispanic/Latino,,2024-12-05_17h53.38.972,dissANT,2023.2.3,60.08687382998984,2024-12-05 18h01.30.726646 -0600,
blank.png,incongLeft.png,left,0,,,,,0,0,0,0,0,9,9,19,150.6591964000836,,,,,,,,,,150.6465257005766,150.6591964000836,151.1592703005299,151.14462080039084,0.5,151.14468550030142,151.1592703005299,151.1592703005299,151.25963340047747,151.65909630060196,151.65909630060196,151.65909630060196,152.19328040070832,left,1,0.5193893993273377,None,,,,,,,,,,,,,,,,,,,,,,,,,,,,,,,,,,,,Eclipse,1,24,Female,Hispanic/Latino,,2024-12-05_17h53.38.972,dissANT,2023.2.3,60.08687382998984,2024-12-05 18h01.30.726646 -0600,
centre.png,congRight.png,right,0,,,,,0,0,0,0,0,10,10,10,152.20888830069453,,,,,,,,,,152.1941432999447,152.20888830069453,152.65917770005763,152.6445112004876,0.45,152.64458980038762,152.65917770005763,152.65917770005763,152.7594718998298,153.15999710001051,153.15999710001051,153.15999710001051,153.64452259987593,right,1,0.47783640027046204,None,,,,,,,,,,,,,,,,,,,,,,,,,,,,,,,,,,,,Eclipse,1,24,Female,Hispanic/Latino,,2024-12-05_17h53.38.972,dissANT,2023.2.3,60.08687382998984,2024-12-05 18h01.30.726646 -0600,
blank.png,neutralLeft.png,right,180,,,,,0,0,0,0,0,11,11,39,153.65942010004073,,,,,,,,,,153.64574400056154,153.65942010004073,154.10943020042032,154.09446940012276,0.45,154.09452940057963,154.10943020042032,154.10943020042032,154.20960120018572,154.60964469984174,154.60964469984174,154.60964469984174,155.24513170029968,right,1,0.6275843996554613,None,,,,,,,,,,,,,,,,,,,,,,,,,,,,,,,,,,,,Eclipse,1,24,Female,Hispanic/Latino,,2024-12-05_17h53.38.972,dissANT,2023.2.3,60.08687382998984,2024-12-05 18h01.30.726646 -0600,
blank.png,neutralLeft.png,left,0,,,,,0,0,0,0,0,12,12,35,155.25950090028346,,,,,,,,,,155.24677080009133,155.25950090028346,155.65937280002981,155.64431949984282,0.4,155.64437840040773,155.65937280002981,155.65937280002981,155.75958160031587,156.15935660060495,156.15935660060495,156.15935660060495,156.77727990038693,left,1,0.6103282002732158,None,,,,,,,,,,,,,,,,,,,,,,,,,,,,,,,,,,,,Eclipse,1,24,Female,Hispanic/Latino,,2024-12-05_17h53.38.972,dissANT,2023.2.3,60.08687382998984,2024-12-05 18h01.30.726646 -0600,
upper.png,neutralLeft.png,left,0,,,,,0,0,0,0,0,13,13,32,156.79282850027084,,,,,,,,,,156.77854990027845,156.79282850027084,157.2925362000242,157.27802920062095,0.5,157.27808930072933,157.2925362000242,157.2925362000242,157.39274410065264,157.79230530001223,157.79230530001223,157.79230530001223,158.19544230028987,left,1,0.4001478999853134,None,,,,,,,,,,,,,,,,,,,,,,,,,,,,,,,,,,,,Eclipse,1,24,Female,Hispanic/Latino,,2024-12-05_17h53.38.972,dissANT,2023.2.3,60.08687382998984,2024-12-05 18h01.30.726646 -0600,
centre.png,neutralLeft.png,left,0,,,,,0,0,0,0,0,14,14,34,158.20943500008434,,,,,,,,,,158.1967950006947,158.20943500008434,158.659319200553,158.6451409002766,0.45,158.64522519987077,158.659319200553,158.659319200553,158.75940340012312,159.1596635999158,159.1596635999158,159.1596635999158,159.56376100052148,left,1,0.38592510018497705,None,,,,,,,,,,,,,,,,,,,,,,,,,,,,,,,,,,,,Eclipse,1,24,Female,Hispanic/Latino,,2024-12-05_17h53.38.972,dissANT,2023.2.3,60.08687382998984,2024-12-05 18h01.30.726646 -0600,
both.png,congLeft.png,left,0,,,,,0,0,0,0,0,15,15,1,159.57574200071394,,,,,,,,,,159.56537260022014,159.57574200071394,160.02558010071516,160.01030460000038,0.45,160.01035430002958,160.02558010071516,160.02558010071516,160.12587579991668,160.5260057002306,160.5260057002306,160.5260057002306,161.09553730022162,left,1,0.5641398997977376,None,,,,,,,,,,,,,,,,,,,,,,,,,,,,,,,,,,,,Eclipse,1,24,Female,Hispanic/Latino,,2024-12-05_17h53.38.972,dissANT,2023.2.3,60.08687382998984,2024-12-05 18h01.30.726646 -0600,
centre.png,congLeft.png,left,0,,,,,0,0,0,0,0,16,16,2,161.10937049984932,,,,,,,,,,161.09712269995362,161.10937049984932,161.55900919996202,161.5449624005705,0.45,161.5450367005542,161.55900919996202,161.55900919996202,161.65944880060852,162.05895900074393,162.05895900074393,162.05895900074393,162.54354420024902,left,1,0.47350480034947395,None,,,,,,,,,,,,,,,,,,,,,,,,,,,,,,,,,,,,Eclipse,1,24,Female,Hispanic/Latino,,2024-12-05_17h53.38.972,dissANT,2023.2.3,60.08687382998984,2024-12-05 18h01.30.726646 -0600,
blank.png,incongRight.png,right,0,,,,,0,0,0,0,0,17,17,27,162.55860600061715,,,,,,,,,,162.5445971004665,162.55860600061715,163.10920049995184,163.09402179997414,0.55,163.09407640062273,163.10920049995184,163.10920049995184,163.2090851003304,163.60940430033952,163.60940430033952,163.60940430033952,164.1443637004122,right,1,0.5240497002378106,None,,,,,,,,,,,,,,,,,,,,,,,,,,,,,,,,,,,,Eclipse,1,24,Female,Hispanic/Latino,,2024-12-05_17h53.38.972,dissANT,2023.2.3,60.08687382998984,2024-12-05 18h01.30.726646 -0600,
both.png,congRight.png,left,180,,,,,0,0,0,0,0,18,18,13,164.1591186001897,,,,,,,,,,164.14570050034672,164.1591186001897,164.7088293004781,164.69217860046774,0.55,164.69220240041614,164.7088293004781,164.7088293004781,164.80904019996524,165.1926841000095,165.1926841000095,165.209080000408,165.71182530000806,left,1,0.5045066997408867,None,,,,,,,,,,,,,,,,,,,,,,,,,,,,,,,,,,,,Eclipse,1,24,Female,Hispanic/Latino,,2024-12-05_17h53.38.972,dissANT,2023.2.3,60.08687382998984,2024-12-05 18h01.30.726646 -0600,
both.png,incongLeft.png,left,0,,,,,0,0,0,0,0,19,19,17,165.72586330026388,,,,,,,,,,165.7133861007169,165.72586330026388,166.1757010007277,166.16174820065498,0.45,166.16182170063257,166.1757010007277,166.1757010007277,166.27598469983786,166.67579020000994,166.67579020000994,166.67579020000994,167.3123959004879,left,1,0.6179256001487374,None,,,,,,,,,,,,,,,,,,,,,,,,,,,,,,,,,,,,Eclipse,1,24,Female,Hispanic/Latino,,2024-12-05_17h53.38.972,dissANT,2023.2.3,60.08687382998984,2024-12-05 18h01.30.726646 -0600,
upper.png,congRight.png,right,0,,,,,0,0,0,0,0,20,20,8,167.32567329984158,,,,,,,,,,167.31398730073124,167.32567329984158,167.775914600119,167.7605269998312,0.45,167.7605821006,167.775914600119,167.775914600119,167.87564280070364,168.2758256001398,168.2758256001398,168.2758256001398,168.66119480039924,right,1,0.3810849003493786,None,,,,,,,,,,,,,,,,,,,,,,,,,,,,,,,,,,,,Eclipse,1,24,Female,Hispanic/Latino,,2024-12-05_17h53.38.972,dissANT,2023.2.3,60.08687382998984,2024-12-05 18h01.30.726646 -0600,
both.png,incongRight.png,left,180,,,,,0,0,0,0,0,21,21,29,168.6756608998403,,,,,,,,,,168.662592000328,168.6756608998403,169.1253125006333,169.11068850010633,0.45,169.1107622999698,169.1253125006333,169.1253125006333,169.22562830056995,169.62583180051297,169.62583180051297,169.62583180051297,170.1294105006382,left,1,0.5005324995145202,None,,,,,,,,,,,,,,,,,,,,,,,,,,,,,,,,,,,,Eclipse,1,24,Female,Hispanic/Latino,,2024-12-05_17h53.38.972,dissANT,2023.2.3,60.08687382998984,2024-12-05 18h01.30.726646 -0600,
centre.png,incongRight.png,right,0,,,,,0,0,0,0,0,22,22,26,170.14260340016335,,,,,,,,,,170.1311757005751,170.14260340016335,170.54246489983052,170.5279216999188,0.4,170.52799320034683,170.54246489983052,170.54246489983052,170.64261330012232,171.0423975000158,171.0423975000158,171.0423975000158,171.62833650037646,right,1,0.5809778003022075,None,,,,,,,,,,,,,,,,,,,,,,,,,,,,,,,,,,,,Eclipse,1,24,Female,Hispanic/Latino,,2024-12-05_17h53.38.972,dissANT,2023.2.3,60.08687382998984,2024-12-05 18h01.30.726646 -0600,
both.png,congLeft.png,right,180,,,,,0,0,0,0,0,23,23,5,171.64241060055792,,,,,,,,,,171.6298485007137,171.64241060055792,172.14201979991049,172.12666370067745,0.5,172.1267145005986,172.14201979991049,172.14201979991049,172.2425824003294,172.64269500039518,172.64269500039518,172.64269500039518,173.16176530066878,right,1,0.5079546999186277,None,,,,,,,,,,,,,,,,,,,,,,,,,,,,,,,,,,,,Eclipse,1,24,Female,Hispanic/Latino,,2024-12-05_17h53.38.972,dissANT,2023.2.3,60.08687382998984,2024-12-05 18h01.30.726646 -0600,
blank.png,congRight.png,left,180,,,,,0,0,0,0,0,24,24,15,173.1751970006153,,,,,,,,,,173.1633897004649,173.1751970006153,173.67567830067128,173.66100710071623,0.5,173.66106529999524,173.67567830067128,173.67567830067128,173.7758464999497,174.17577190045267,174.17577190045267,174.17577190045267,174.72564620058984,left,1,0.5378133002668619,None,,,,,,,,,,,,,,,,,,,,,,,,,,,,,,,,,,,,Eclipse,1,24,Female,Hispanic/Latino,,2024-12-05_17h53.38.972,dissANT,2023.2.3,60.08687382998984,2024-12-05 18h01.30.726646 -0600,
lower.png,neutralLeft.png,right,180,,,,,0,0,0,0,0,25,25,36,174.74168090056628,,,,,,,,,,174.7259486000985,174.74168090056628,175.29177930019796,175.27548990026116,0.55,175.2755050007254,175.29177930019796,175.29177930019796,175.39163320045918,175.77496150042862,175.77496150042862,175.79168440029025,176.29464909993112,right,1,0.5161172999069095,None,,,,,,,,,,,,,,,,,,,,,,,,,,,,,,,,,,,,Eclipse,1,24,Female,Hispanic/Latino,,2024-12-05_17h53.38.972,dissANT,2023.2.3,60.08687382998984,2024-12-05 18h01.30.726646 -0600,
upper.png,incongLeft.png,left,0,,,,,0,0,0,0,0,26,26,16,176.3086672006175,,,,,,,,,,176.29576649982482,176.3086672006175,176.80890110041946,176.79450680036098,0.5,176.79458119999617,176.80890110041946,176.80890110041946,176.90896910056472,177.30890430044383,177.30890430044383,177.30890430044383,178.11123230028898,left,1,0.7978490004315972,None,,,,,,,,,,,,,,,,,,,,,,,,,,,,,,,,,,,,Eclipse,1,24,Female,Hispanic/Latino,,2024-12-05_17h53.38.972,dissANT,2023.2.3,60.08687382998984,2024-12-05 18h01.30.726646 -0600,
blank.png,neutralRight.png,left,180,,,,,0,0,0,0,0,27,27,47,178.12506740074605,,,,,,,,,,178.1126001002267,178.12506740074605,178.67528790049255,178.6610601004213,0.55,178.66112640034407,178.67528790049255,178.67528790049255,178.77504369989038,179.17569509986788,179.17569509986788,179.17569509986788,179.69335249997675,left,1,0.5110110994428396,None,,,,,,,,,,,,,,,,,,,,,,,,,,,,,,,,,,,,Eclipse,1,24,Female,Hispanic/Latino,,2024-12-05_17h53.38.972,dissANT,2023.2.3,60.08687382998984,2024-12-05 18h01.30.726646 -0600,
both.png,neutralRight.png,right,0,,,,,0,0,0,0,0,28,28,41,179.70900030061603,,,,,,,,,,179.69450280070305,179.70900030061603,180.20892160013318,180.1937998002395,0.5,180.19385970011353,180.20892160013318,180.20892160013318,180.30890490021557,180.70896380022168,180.70896380022168,180.70896380022168,181.1943159000948,right,1,0.46859969943761826,None,,,,,,,,,,,,,,,,,,,,,,,,,,,,,,,,,,,,Eclipse,1,24,Female,Hispanic/Latino,,2024-12-05_17h53.38.972,dissANT,2023.2.3,60.08687382998984,2024-12-05 18h01.30.726646 -0600,
upper.png,incongRight.png,right,0,,,,,0,0,0,0,0,29,29,24,181.20849350001663,,,,,,,,,,181.1955360006541,181.20849350001663,181.75845630001277,181.74259520042688,0.55,181.74263390060514,181.75845630001277,181.75845630001277,181.85817680042237,182.24222160037607,182.24222160037607,182.2589102005586,182.71144490037113,right,1,0.46214389987289906,None,,,,,,,,,,,,,,,,,,,,,,,,,,,,,,,,,,,,Eclipse,1,24,Female,Hispanic/Latino,,2024-12-05_17h53.38.972,dissANT,2023.2.3,60.08687382998984,2024-12-05 18h01.30.726646 -0600,
upper.png,congLeft.png,left,0,,,,,0,0,0,0,0,30,30,0,182.72525050025433,,,,,,,,,,182.7128990003839,182.72525050025433,183.27542799990624,183.260634300299,0.55,183.260688200593,183.27542799990624,183.27542799990624,183.37540120072663,183.7751093003899,183.7751093003899,183.7751093003899,184.2115734005347,left,1,0.4191544996574521,None,,,,,,,,,,,,,,,,,,,,,,,,,,,,,,,,,,,,Eclipse,1,24,Female,Hispanic/Latino,,2024-12-05_17h53.38.972,dissANT,2023.2.3,60.08687382998984,2024-12-05 18h01.30.726646 -0600,
lower.png,congLeft.png,right,180,,,,,0,0,0,0,0,31,31,4,184.2252850998193,,,,,,,,,,184.21318570058793,184.2252850998193,184.67527760006487,184.65996879991144,0.45,184.66002119984478,184.67527760006487,184.67527760006487,184.77511540055275,185.17540619987994,185.17540619987994,185.17540619987994,185.6943642999977,right,1,0.5080893998965621,None,,,,,,,,,,,,,,,,,,,,,,,,,,,,,,,,,,,,Eclipse,1,24,Female,Hispanic/Latino,,2024-12-05_17h53.38.972,dissANT,2023.2.3,60.08687382998984,2024-12-05 18h01.30.726646 -0600,
centre.png,incongRight.png,left,180,,,,,0,0,0,0,0,32,32,30,185.70889000035822,,,,,,,,,,185.69574090000242,185.70889000035822,186.25839109998196,186.2435054006055,0.55,186.24357410054654,186.25839109998196,186.25839109998196,186.3584711998701,186.75878840032965,186.75878840032965,186.75878840032965,187.37816010043025,left,1,0.6029989002272487,None,,,,,,,,,,,,,,,,,,,,,,,,,,,,,,,,,,,,Eclipse,1,24,Female,Hispanic/Latino,,2024-12-05_17h53.38.972,dissANT,2023.2.3,60.08687382998984,2024-12-05 18h01.30.726646 -0600,
lower.png,incongRight.png,left,180,,,,,0,0,0,0,0,33,33,28,187.3919930998236,,,,,,,,,,187.37967240065336,187.3919930998236,187.9419164005667,187.92666320037097,0.55,187.9267185004428,187.9419164005667,187.9419164005667,188.04217550065368,188.44212740007788,188.44212740007788,188.44212740007788,188.92878810036927,left,1,0.48272680025547743,None,,,,,,,,,,,,,,,,,,,,,,,,,,,,,,,,,,,,Eclipse,1,24,Female,Hispanic/Latino,,2024-12-05_17h53.38.972,dissANT,2023.2.3,60.08687382998984,2024-12-05 18h01.30.726646 -0600,
blank.png,incongLeft.png,right,180,,,,,0,0,0,0,0,34,34,23,188.9420735007152,,,,,,,,,,188.93060700036585,188.9420735007152,189.3419802999124,189.3275504000485,0.4,189.3276235004887,189.3419802999124,189.3419802999124,189.4419344998896,189.8421403001994,189.8421403001994,189.8421403001994,190.44420810043812,right,1,0.5931663997471333,None,,,,,,,,,,,,,,,,,,,,,,,,,,,,,,,,,,,,Eclipse,1,24,Female,Hispanic/Latino,,2024-12-05_17h53.38.972,dissANT,2023.2.3,60.08687382998984,2024-12-05 18h01.30.726646 -0600,
lower.png,neutralRight.png,left,180,,,,,0,0,0,0,0,35,35,44,190.4585535004735,,,,,,,,,,190.44569090008736,190.4585535004735,190.85849739983678,190.8435757001862,0.4,190.84363150037825,190.85849739983678,190.85849739983678,190.9586964007467,191.358767000027,191.358767000027,191.358767000027,191.82646219991148,left,1,0.462699799798429,None,,,,,,,,,,,,,,,,,,,,,,,,,,,,,,,,,,,,Eclipse,1,24,Female,Hispanic/Latino,,2024-12-05_17h53.38.972,dissANT,2023.2.3,60.08687382998984,2024-12-05 18h01.30.726646 -0600,
centre.png,congRight.png,left,180,,,,,0,0,0,0,0,36,36,14,191.84122550021857,,,,,,,,,,191.82753279991448,191.84122550021857,192.3918364001438,192.3768319003284,0.55,192.37689079996198,192.3918364001438,192.3918364001438,192.49200250022113,192.89193349983543,192.89193349983543,192.89193349983543,193.34372080024332,left,1,0.4384106993675232,None,,,,,,,,,,,,,,,,,,,,,,,,,,,,,,,,,,,,Eclipse,1,24,Female,Hispanic/Latino,,2024-12-05_17h53.38.972,dissANT,2023.2.3,60.08687382998984,2024-12-05 18h01.30.726646 -0600,
both.png,incongRight.png,right,0,,,,,0,0,0,0,0,37,37,25,193.3586273007095,,,,,,,,,,193.3451808001846,193.3586273007095,193.75830840039998,193.74339789990336,0.4,193.74347670003772,193.75830840039998,193.75830840039998,193.8586282003671,194.25855119992048,194.25855119992048,194.25855119992048,194.89394049998373,right,1,0.6243724999949336,None,,,,,,,,,,,,,,,,,,,,,,,,,,,,,,,,,,,,Eclipse,1,24,Female,Hispanic/Latino,,2024-12-05_17h53.38.972,dissANT,2023.2.3,60.08687382998984,2024-12-05 18h01.30.726646 -0600,
both.png,neutralLeft.png,right,180,,,,,0,0,0,0,0,38,38,37,194.908296700567,,,,,,,,,,194.89558240026236,194.908296700567,195.30820200033486,195.2916240999475,0.4,195.2916411003098,195.30820200033486,195.30820200033486,195.4079875005409,195.79151270072907,195.79151270072907,195.80837449990213,196.34414460044354,right,1,0.5369544997811317,None,,,,,,,,,,,,,,,,,,,,,,,,,,,,,,,,,,,,Eclipse,1,24,Female,Hispanic/Latino,,2024-12-05_17h53.38.972,dissANT,2023.2.3,60.08687382998984,2024-12-05 18h01.30.726646 -0600,
both.png,neutralRight.png,left,180,,,,,0,0,0,0,0,39,39,45,196.35824530012906,,,,,,,,,,196.34568070061505,196.35824530012906,196.85868440009654,196.84269430022687,0.5,196.8427429003641,196.85868440009654,196.85868440009654,196.95853940024972,197.35858529992402,197.35858529992402,197.35858529992402,197.79423010069877,left,1,0.41938639990985394,None,,,,,,,,,,,,,,,,,,,,,,,,,,,,,,,,,,,,Eclipse,1,24,Female,Hispanic/Latino,,2024-12-05_17h53.38.972,dissANT,2023.2.3,60.08687382998984,2024-12-05 18h01.30.726646 -0600,
blank.png,incongRight.png,left,180,,,,,0,0,0,0,0,40,40,31,197.80842890031636,,,,,,,,,,197.79575450066477,197.80842890031636,198.25835040025413,198.24362239986658,0.45,198.2436934998259,198.25835040025413,198.25835040025413,198.35843820031732,198.75874869991094,198.75874869991094,198.75874869991094,199.29407920036465,left,1,0.5293607003986835,None,,,,,,,,,,,,,,,,,,,,,,,,,,,,,,,,,,,,Eclipse,1,24,Female,Hispanic/Latino,,2024-12-05_17h53.38.972,dissANT,2023.2.3,60.08687382998984,2024-12-05 18h01.30.726646 -0600,
blank.png,congLeft.png,right,180,,,,,0,0,0,0,0,41,41,7,199.30839120037854,,,,,,,,,,199.2957391999662,199.30839120037854,199.70840920042247,199.69381880015135,0.4,199.6938912998885,199.70840920042247,199.70840920042247,199.80798260029405,200.2084528999403,200.2084528999403,200.2084528999403,200.66202000062913,right,1,0.44436459988355637,None,,,,,,,,,,,,,,,,,,,,,,,,,,,,,,,,,,,,Eclipse,1,24,Female,Hispanic/Latino,,2024-12-05_17h53.38.972,dissANT,2023.2.3,60.08687382998984,2024-12-05 18h01.30.726646 -0600,
both.png,incongLeft.png,right,180,,,,,0,0,0,0,0,42,42,21,200.67481910064816,,,,,,,,,,200.6640223003924,200.67481910064816,201.17480400018394,201.16077310033143,0.5,201.16085979994386,201.17480400018394,201.17480400018394,201.274967700243,201.67496240045875,201.67496240045875,201.67496240045875,202.07787240017205,left,0,0.40018200036138296,None,,,,,,,,,,,,,,,,,,,,,,,,,,,,,,,,,,,,Eclipse,1,24,Female,Hispanic/Latino,,2024-12-05_17h53.38.972,dissANT,2023.2.3,60.08687382998984,2024-12-05 18h01.30.726646 -0600,
lower.png,incongLeft.png,right,180,,,,,0,0,0,0,0,43,43,20,202.09134369995445,,,,,,,,,,202.0792607003823,202.09134369995445,202.49160820059478,202.47631140053272,0.4,202.47637160029262,202.49160820059478,202.49160820059478,202.59174269996583,202.99165089987218,202.99165089987218,202.99165089987218,203.56129080057144,right,1,0.5580337001010776,None,,,,,,,,,,,,,,,,,,,,,,,,,,,,,,,,,,,,Eclipse,1,24,Female,Hispanic/Latino,,2024-12-05_17h53.38.972,dissANT,2023.2.3,60.08687382998984,2024-12-05 18h01.30.726646 -0600,
centre.png,incongLeft.png,right,180,,,,,0,0,0,0,0,44,44,22,203.57476089987904,,,,,,,,,,203.56300990004092,203.57476089987904,204.07487760018557,204.0606045005843,0.5,204.0606772005558,204.07487760018557,204.07487760018557,204.1749571999535,204.57516389992088,204.57516389992088,204.57516389992088,205.07727240025997,right,1,0.48715229984372854,None,,,,,,,,,,,,,,,,,,,,,,,,,,,,,,,,,,,,Eclipse,1,24,Female,Hispanic/Latino,,2024-12-05_17h53.38.972,dissANT,2023.2.3,60.08687382998984,2024-12-05 18h01.30.726646 -0600,
both.png,congRight.png,right,0,,,,,0,0,0,0,0,45,45,9,205.09152950067073,,,,,,,,,,205.07876880001277,205.09152950067073,205.54137609992176,205.52607200015336,0.45,205.52613760065287,205.54137609992176,205.54137609992176,205.64161510020494,206.04168010037392,206.04168010037392,206.04168010037392,206.57732500042766,right,1,0.5319261001423001,None,,,,,,,,,,,,,,,,,,,,,,,,,,,,,,,,,,,,Eclipse,1,24,Female,Hispanic/Latino,,2024-12-05_17h53.38.972,dissANT,2023.2.3,60.08687382998984,2024-12-05 18h01.30.726646 -0600,
centre.png,neutralRight.png,right,0,,,,,0,0,0,0,0,46,46,42,206.5912992004305,,,,,,,,,,206.5786899998784,206.5912992004305,207.14167310018092,207.1266251001507,0.55,207.12671300023794,207.14167310018092,207.14167310018092,207.24165919981897,207.6417716005817,207.6417716005817,207.6417716005817,208.0099022006616,right,1,0.3659897996112704,None,,,,,,,,,,,,,,,,,,,,,,,,,,,,,,,,,,,,Eclipse,1,24,Female,Hispanic/Latino,,2024-12-05_17h53.38.972,dissANT,2023.2.3,60.08687382998984,2024-12-05 18h01.30.726646 -0600,
centre.png,neutralLeft.png,right,180,,,,,0,0,0,0,0,47,47,38,208.0248298002407,,,,,,,,,,208.01105530001223,208.0248298002407,208.57467970065773,208.5606831004843,0.55,208.56075520068407,208.57467970065773,208.57467970065773,208.67482080031186,209.075036900118,209.075036900118,209.075036900118,209.69357480015606,right,1,0.607633700594306,None,,,,,,,,,,,,,,,,,,,,,,,,,,,,,,,,,,,,Eclipse,1,24,Female,Hispanic/Latino,,2024-12-05_17h53.38.972,dissANT,2023.2.3,60.08687382998984,2024-12-05 18h01.30.726646 -0600,
centre.png,neutralLeft.png,left,0,,,,,0,0,0,0,1,0,48,34,209.7078865999356,,,,,,,,,,209.69510870054364,209.7078865999356,210.20787710044533,210.1917802002281,0.5,210.1918178005144,210.20787710044533,210.20787710044533,210.30827060062438,210.6914835004136,210.6914835004136,210.70826010033488,211.31081529986113,left,1,0.6064973995089531,None,,,,,,,,,,,,,,,,,,,,,,,,,,,,,,,,,,,,Eclipse,1,24,Female,Hispanic/Latino,,2024-12-05_17h53.38.972,dissANT,2023.2.3,60.08687382998984,2024-12-05 18h01.30.726646 -0600,
lower.png,incongLeft.png,right,180,,,,,0,0,0,0,1,1,49,20,211.324645800516,,,,,,,,,,211.31237030029297,211.324645800516,211.7245888998732,211.71059460006654,0.4,211.71066630072892,211.7245888998732,211.7245888998732,211.82484210003167,212.22450060024858,212.22450060024858,212.22450060024858,212.89477000012994,right,1,0.6557326000183821,None,,,,,,,,,,,,,,,,,,,,,,,,,,,,,,,,,,,,Eclipse,1,24,Female,Hispanic/Latino,,2024-12-05_17h53.38.972,dissANT,2023.2.3,60.08687382998984,2024-12-05 18h01.30.726646 -0600,
upper.png,incongRight.png,right,0,,,,,0,0,0,0,1,2,50,24,212.908079800196,,,,,,,,,,212.8966290000826,212.908079800196,213.40811430010945,213.39369750022888,0.5,213.39376810006797,213.40811430010945,213.40811430010945,213.50818740017712,213.90823130030185,213.90823130030185,213.90823130030185,214.5103444000706,right,1,0.588539999909699,None,,,,,,,,,,,,,,,,,,,,,,,,,,,,,,,,,,,,Eclipse,1,24,Female,Hispanic/Latino,,2024-12-05_17h53.38.972,dissANT,2023.2.3,60.08687382998984,2024-12-05 18h01.30.726646 -0600,
lower.png,neutralLeft.png,right,180,,,,,0,0,0,0,1,3,51,36,214.52465360052884,,,,,,,,,,214.5118671003729,214.52465360052884,215.0746057005599,215.0594164999202,0.55,215.05947490036488,215.0746057005599,215.0746057005599,215.1746625006199,215.574779599905,215.574779599905,215.574779599905,216.01094599999487,right,1,0.4327723002061248,None,,,,,,,,,,,,,,,,,,,,,,,,,,,,,,,,,,,,Eclipse,1,24,Female,Hispanic/Latino,,2024-12-05_17h53.38.972,dissANT,2023.2.3,60.08687382998984,2024-12-05 18h01.30.726646 -0600,
blank.png,neutralLeft.png,right,180,,,,,0,0,0,0,1,4,52,39,216.0246442006901,,,,,,,,,,216.01254170015454,216.0246442006901,216.42471970058978,216.40996799990535,0.4,216.41002690047026,216.42471970058978,216.42471970058978,216.52463430073112,216.92475770041347,216.92475770041347,216.92475770041347,217.32594100013375,right,1,0.39170690067112446,None,,,,,,,,,,,,,,,,,,,,,,,,,,,,,,,,,,,,Eclipse,1,24,Female,Hispanic/Latino,,2024-12-05_17h53.38.972,dissANT,2023.2.3,60.08687382998984,2024-12-05 18h01.30.726646 -0600,
centre.png,incongLeft.png,right,180,,,,,0,0,0,0,1,5,53,22,217.3412632001564,,,,,,,,,,217.32697990071028,217.3412632001564,217.74106950033456,217.7261943006888,0.4,217.72625599987805,217.74106950033456,217.74106950033456,217.84146689996123,218.2411862006411,218.2411862006411,218.2411862006411,218.74498860072345,right,1,0.4992698999121785,None,,,,,,,,,,,,,,,,,,,,,,,,,,,,,,,,,,,,Eclipse,1,24,Female,Hispanic/Latino,,2024-12-05_17h53.38.972,dissANT,2023.2.3,60.08687382998984,2024-12-05 18h01.30.726646 -0600,
both.png,neutralLeft.png,right,180,,,,,0,0,0,0,1,6,54,37,218.75801240000874,,,,,,,,,,218.74684350006282,218.75801240000874,219.30774490069598,219.29268429987133,0.55,219.29274080041796,219.30774490069598,219.30774490069598,219.40793200023472,219.80805740039796,219.80805740039796,219.80805740039796,220.2254836000502,right,1,0.40451010037213564,None,,,,,,,,,,,,,,,,,,,,,,,,,,,,,,,,,,,,Eclipse,1,24,Female,Hispanic/Latino,,2024-12-05_17h53.38.972,dissANT,2023.2.3,60.08687382998984,2024-12-05 18h01.30.726646 -0600,
lower.png,neutralRight.png,left,180,,,,,0,0,0,0,1,7,55,44,220.2414290001616,,,,,,,,,,220.2264697002247,220.2414290001616,220.79110760055482,220.77639700006694,0.55,220.77647920046002,220.79110760055482,220.79110760055482,220.8912797998637,221.29118490032852,221.29118490032852,221.29118490032852,221.9078655000776,left,1,0.6056826002895832,None,,,,,,,,,,,,,,,,,,,,,,,,,,,,,,,,,,,,Eclipse,1,24,Female,Hispanic/Latino,,2024-12-05_17h53.38.972,dissANT,2023.2.3,60.08687382998984,2024-12-05 18h01.30.726646 -0600,
blank.png,neutralRight.png,left,180,,,,,0,0,0,0,1,8,56,47,221.92400330025703,,,,,,,,,,221.90837590023875,221.92400330025703,222.3242839006707,222.30870399996638,0.4,222.30874030012637,222.3242839006707,222.3242839006707,222.42429660074413,222.82439910061657,222.82439910061657,222.82439910061657,223.27576230000705,left,1,0.43461519945412874,None,,,,,,,,,,,,,,,,,,,,,,,,,,,,,,,,,,,,Eclipse,1,24,Female,Hispanic/Latino,,2024-12-05_17h53.38.972,dissANT,2023.2.3,60.08687382998984,2024-12-05 18h01.30.726646 -0600,
centre.png,incongRight.png,right,0,,,,,0,0,0,0,1,9,57,26,223.2910841004923,,,,,,,,,,223.27680459991097,223.2910841004923,223.69049410056323,223.67543470021337,0.4,223.67549930047244,223.69049410056323,223.69049410056323,223.79098360054195,224.1909699998796,224.1909699998796,224.1909699998796,224.70821660012007,left,0,0.5098976995795965,None,,,,,,,,,,,,,,,,,,,,,,,,,,,,,,,,,,,,Eclipse,1,24,Female,Hispanic/Latino,,2024-12-05_17h53.38.972,dissANT,2023.2.3,60.08687382998984,2024-12-05 18h01.30.726646 -0600,
blank.png,congLeft.png,left,0,,,,,0,0,0,0,1,10,58,3,224.72376620024443,,,,,,,,,,224.70859960000962,224.72376620024443,225.2745310002938,225.25799830071628,0.55,225.258011800237,225.2745310002938,225.2745310002938,225.37433330062777,225.75789460074157,225.75789460074157,225.77439380064607,226.35835510026664,left,1,0.5971648003906012,None,,,,,,,,,,,,,,,,,,,,,,,,,,,,,,,,,,,,Eclipse,1,24,Female,Hispanic/Latino,,2024-12-05_17h53.38.972,dissANT,2023.2.3,60.08687382998984,2024-12-05 18h01.30.726646 -0600,
centre.png,congRight.png,left,180,,,,,0,0,0,0,1,11,59,14,226.37408050056547,,,,,,,,,,226.35898870043457,226.37408050056547,226.92407650034875,226.90756070055068,0.55,226.9075717004016,226.92407650034875,226.92407650034875,227.02390080038458,227.40736640058458,227.40736640058458,227.4239367004484,227.92437830008566,left,1,0.5111638996750116,None,,,,,,,,,,,,,,,,,,,,,,,,,,,,,,,,,,,,Eclipse,1,24,Female,Hispanic/Latino,,2024-12-05_17h53.38.972,dissANT,2023.2.3,60.08687382998984,2024-12-05 18h01.30.726646 -0600,
both.png,congLeft.png,right,180,,,,,0,0,0,0,1,12,60,5,227.94064250029624,,,,,,,,,,227.9247027002275,227.94064250029624,228.34078409988433,228.32558380067348,0.4,228.32564570009708,228.34078409988433,228.34078409988433,228.44129350036383,228.8411178998649,228.8411178998649,228.8411178998649,229.31062670052052,right,1,0.45549399964511395,None,,,,,,,,,,,,,,,,,,,,,,,,,,,,,,,,,,,,Eclipse,1,24,Female,Hispanic/Latino,,2024-12-05_17h53.38.972,dissANT,2023.2.3,60.08687382998984,2024-12-05 18h01.30.726646 -0600,
upper.png,incongLeft.png,left,0,,,,,0,0,0,0,1,13,61,16,229.3242359003052,,,,,,,,,,229.3124820003286,229.3242359003052,229.72391630057245,229.70980060007423,0.4,229.7098682001233,229.72391630057245,229.72391630057245,229.8237423999235,230.2246398003772,230.2246398003772,230.2246398003772,231.14408939983696,left,1,0.9174207001924515,None,,,,,,,,,,,,,,,,,,,,,,,,,,,,,,,,,,,,Eclipse,1,24,Female,Hispanic/Latino,,2024-12-05_17h53.38.972,dissANT,2023.2.3,60.08687382998984,2024-12-05 18h01.30.726646 -0600,
blank.png,congRight.png,left,180,,,,,0,0,0,0,1,14,62,15,231.15690330043435,,,,,,,,,,231.14518829993904,231.15690330043435,231.6575883999467,231.64282190054655,0.5,231.64290249999613,231.6575883999467,231.6575883999467,231.7576202005148,232.15768420044333,232.15768420044333,232.15768420044333,232.67658670060337,left,1,0.513833299279213,None,,,,,,,,,,,,,,,,,,,,,,,,,,,,,,,,,,,,Eclipse,1,24,Female,Hispanic/Latino,,2024-12-05_17h53.38.972,dissANT,2023.2.3,60.08687382998984,2024-12-05 18h01.30.726646 -0600,
lower.png,congLeft.png,right,180,,,,,0,0,0,0,1,15,63,4,232.69098050054163,,,,,,,,,,232.6779115004465,232.69098050054163,233.14085710048676,233.1259798007086,0.45,233.12604530062526,233.14085710048676,233.14085710048676,233.24118570052087,233.64103730022907,233.64103730022907,233.64103730022907,234.10967720020562,right,1,0.4519734000787139,None,,,,,,,,,,,,,,,,,,,,,,,,,,,,,,,,,,,,Eclipse,1,24,Female,Hispanic/Latino,,2024-12-05_17h53.38.972,dissANT,2023.2.3,60.08687382998984,2024-12-05 18h01.30.726646 -0600,
centre.png,neutralLeft.png,right,180,,,,,0,0,0,0,1,16,64,38,234.12373500037938,,,,,,,,,,234.11107670050114,234.12373500037938,234.6738360999152,234.657650699839,0.55,234.65766180027276,234.6738360999152,234.6738360999152,234.77380040008575,235.15724800061435,235.15724800061435,235.17381910048425,235.60812960006297,right,1,0.4497715001925826,None,,,,,,,,,,,,,,,,,,,,,,,,,,,,,,,,,,,,Eclipse,1,24,Female,Hispanic/Latino,,2024-12-05_17h53.38.972,dissANT,2023.2.3,60.08687382998984,2024-12-05 18h01.30.726646 -0600,
both.png,congRight.png,right,0,,,,,0,0,0,0,1,17,65,9,235.62393300049007,,,,,,,,,,235.6083992002532,235.62393300049007,236.12373180035502,236.10751780029386,0.5,236.1075301002711,236.12373180035502,236.12373180035502,236.2236345000565,236.6070006005466,236.6070006005466,236.62374209985137,237.15812250040472,right,1,0.5347448997199535,None,,,,,,,,,,,,,,,,,,,,,,,,,,,,,,,,,,,,Eclipse,1,24,Female,Hispanic/Latino,,2024-12-05_17h53.38.972,dissANT,2023.2.3,60.08687382998984,2024-12-05 18h01.30.726646 -0600,
blank.png,incongRight.png,left,180,,,,,0,0,0,0,1,18,66,31,237.1737307002768,,,,,,,,,,237.1583894006908,237.1737307002768,237.62363510020077,237.60749140009284,0.45,237.60750490054488,237.62363510020077,237.62363510020077,237.72340400051326,238.10747139994055,238.10747139994055,238.12405209988356,238.7935808999464,left,1,0.6715382002294064,None,,,,,,,,,,,,,,,,,,,,,,,,,,,,,,,,,,,,Eclipse,1,24,Female,Hispanic/Latino,,2024-12-05_17h53.38.972,dissANT,2023.2.3,60.08687382998984,2024-12-05 18h01.30.726646 -0600,
blank.png,incongLeft.png,left,0,,,,,0,0,0,0,1,19,67,19,238.80727769993246,,,,,,,,,,238.795202200301,238.80727769993246,239.20725340023637,239.19263660069555,0.4,239.19270800054073,239.20725340023637,239.20725340023637,239.30726520065218,239.70747810043395,239.70747810043395,239.70747810043395,240.4102507000789,left,1,0.697338699363172,None,,,,,,,,,,,,,,,,,,,,,,,,,,,,,,,,,,,,Eclipse,1,24,Female,Hispanic/Latino,,2024-12-05_17h53.38.972,dissANT,2023.2.3,60.08687382998984,2024-12-05 18h01.30.726646 -0600,
centre.png,congLeft.png,left,0,,,,,0,0,0,0,1,20,68,2,240.42415290046483,,,,,,,,,,240.41177539993078,240.42415290046483,240.9235853999853,240.90977160073817,0.5,240.90985519997776,240.9235853999853,240.9235853999853,241.02385640051216,241.4239877006039,241.4239877006039,241.4239877006039,241.9253056999296,left,1,0.4891358995810151,None,,,,,,,,,,,,,,,,,,,,,,,,,,,,,,,,,,,,Eclipse,1,24,Female,Hispanic/Latino,,2024-12-05_17h53.38.972,dissANT,2023.2.3,60.08687382998984,2024-12-05 18h01.30.726646 -0600,
both.png,congLeft.png,left,0,,,,,0,0,0,0,1,21,69,1,241.94008630048484,,,,,,,,,,241.92615660000592,241.94008630048484,242.49050150066614,242.47554060071707,0.55,242.47559950035065,242.49050150066614,242.49050150066614,242.58992050029337,242.99084160011262,242.99084160011262,242.99084160011262,243.47624600026757,left,1,0.4669786999002099,None,,,,,,,,,,,,,,,,,,,,,,,,,,,,,,,,,,,,Eclipse,1,24,Female,Hispanic/Latino,,2024-12-05_17h53.38.972,dissANT,2023.2.3,60.08687382998984,2024-12-05 18h01.30.726646 -0600,
upper.png,congLeft.png,left,0,,,,,0,0,0,0,1,22,70,0,243.49066040012985,,,,,,,,,,243.477787300013,243.49066040012985,243.94000370055437,243.92358850035816,0.45,243.9236003998667,243.94000370055437,243.94000370055437,244.0406666006893,244.42430840060115,244.42430840060115,244.44083470012993,244.82624009996653,left,1,0.3944073002785444,None,,,,,,,,,,,,,,,,,,,,,,,,,,,,,,,,,,,,Eclipse,1,24,Female,Hispanic/Latino,,2024-12-05_17h53.38.972,dissANT,2023.2.3,60.08687382998984,2024-12-05 18h01.30.726646 -0600,
centre.png,congRight.png,right,0,,,,,0,0,0,0,1,23,71,10,244.84065290074795,,,,,,,,,,244.82764849998057,244.84065290074795,245.39060880057514,245.37566450051963,0.55,245.37572340015322,245.39060880057514,245.39060880057514,245.49064860027283,245.89057479985058,245.89057479985058,245.89057479985058,246.35997720062733,right,1,0.46594579983502626,None,,,,,,,,,,,,,,,,,,,,,,,,,,,,,,,,,,,,Eclipse,1,24,Female,Hispanic/Latino,,2024-12-05_17h53.38.972,dissANT,2023.2.3,60.08687382998984,2024-12-05 18h01.30.726646 -0600,
centre.png,congLeft.png,right,180,,,,,0,0,0,0,1,24,72,6,246.3738382998854,,,,,,,,,,246.36139640025795,246.3738382998854,246.87399180047214,246.85883770044893,0.5,246.85889510065317,246.87399180047214,246.87399180047214,246.9739466002211,247.37394380010664,247.37394380010664,247.37394380010664,247.97635740041733,right,1,0.595393099822104,None,,,,,,,,,,,,,,,,,,,,,,,,,,,,,,,,,,,,Eclipse,1,24,Female,Hispanic/Latino,,2024-12-05_17h53.38.972,dissANT,2023.2.3,60.08687382998984,2024-12-05 18h01.30.726646 -0600,
both.png,congRight.png,left,180,,,,,0,0,0,0,1,25,73,13,247.99053539987653,,,,,,,,,,247.97780300024897,247.99053539987653,248.44058520067483,248.4255397003144,0.45,248.42560499999672,248.44058520067483,248.44058520067483,248.54066940024495,248.94060359988362,248.94060359988362,248.94060359988362,249.42680300027132,left,1,0.47982019931077957,None,,,,,,,,,,,,,,,,,,,,,,,,,,,,,,,,,,,,Eclipse,1,24,Female,Hispanic/Latino,,2024-12-05_17h53.38.972,dissANT,2023.2.3,60.08687382998984,2024-12-05 18h01.30.726646 -0600,
blank.png,incongRight.png,right,0,,,,,0,0,0,0,1,26,74,27,249.44043540023267,,,,,,,,,,249.42836470063776,249.44043540023267,249.89035730063915,249.8758708005771,0.45,249.8759443005547,249.89035730063915,249.89035730063915,249.9900756003335,250.39015039987862,250.39015039987862,250.39015039987862,251.10812580026686,right,1,0.7161198994144797,None,,,,,,,,,,,,,,,,,,,,,,,,,,,,,,,,,,,,Eclipse,1,24,Female,Hispanic/Latino,,2024-12-05_17h53.38.972,dissANT,2023.2.3,60.08687382998984,2024-12-05 18h01.30.726646 -0600,
both.png,incongRight.png,left,180,,,,,0,0,0,0,1,27,75,29,251.12372640054673,,,,,,,,,,251.1091367006302,251.12372640054673,251.67370470054448,251.65917610004544,0.55,251.65923800040036,251.67370470054448,251.67370470054448,251.77339590061456,252.1737320004031,252.1737320004031,252.1737320004031,252.7431958001107,left,1,0.5522830998525023,None,,,,,,,,,,,,,,,,,,,,,,,,,,,,,,,,,,,,Eclipse,1,24,Female,Hispanic/Latino,,2024-12-05_17h53.38.972,dissANT,2023.2.3,60.08687382998984,2024-12-05 18h01.30.726646 -0600,
blank.png,incongLeft.png,right,180,,,,,0,0,0,0,1,28,76,23,252.75714070070535,,,,,,,,,,252.74495350010693,252.75714070070535,253.25698290020227,253.24314879998565,0.5,253.2432309007272,253.25698290020227,253.25698290020227,253.3571883002296,253.75726560037583,253.75726560037583,253.75726560037583,254.35993670020252,right,1,0.5885415999218822,None,,,,,,,,,,,,,,,,,,,,,,,,,,,,,,,,,,,,Eclipse,1,24,Female,Hispanic/Latino,,2024-12-05_17h53.38.972,dissANT,2023.2.3,60.08687382998984,2024-12-05 18h01.30.726646 -0600,
both.png,neutralLeft.png,left,0,,,,,0,0,0,0,1,29,77,33,254.3736481005326,,,,,,,,,,254.36142360046506,254.3736481005326,254.77377360034734,254.75871560070664,0.4,254.75877530034631,254.77377360034734,254.77377360034734,254.87383980024606,255.27372460067272,255.27372460067272,255.27372460067272,255.9265526998788,left,1,0.639550800435245,None,,,,,,,,,,,,,,,,,,,,,,,,,,,,,,,,,,,,Eclipse,1,24,Female,Hispanic/Latino,,2024-12-05_17h53.38.972,dissANT,2023.2.3,60.08687382998984,2024-12-05 18h01.30.726646 -0600,
lower.png,incongRight.png,left,180,,,,,0,0,0,0,1,30,78,28,255.94033579993993,,,,,,,,,,255.9282913999632,255.94033579993993,256.3900292003527,256.37409840058535,0.45,256.37414140067995,256.3900292003527,256.3900292003527,256.48995070066303,256.87417910061777,256.87417910061777,256.89032050035894,257.7420187005773,left,1,0.8631233004853129,None,,,,,,,,,,,,,,,,,,,,,,,,,,,,,,,,,,,,Eclipse,1,24,Female,Hispanic/Latino,,2024-12-05_17h53.38.972,dissANT,2023.2.3,60.08687382998984,2024-12-05 18h01.30.726646 -0600,
centre.png,neutralRight.png,left,180,,,,,0,0,0,0,1,31,79,46,257.7567875003442,,,,,,,,,,257.74327670037746,257.7567875003442,258.3067931998521,258.29291329998523,0.55,258.2929846998304,258.3067931998521,258.3067931998521,258.4068555999547,258.8070994000882,258.8070994000882,258.8070994000882,259.2407712005079,left,1,0.4309764998033643,None,,,,,,,,,,,,,,,,,,,,,,,,,,,,,,,,,,,,Eclipse,1,24,Female,Hispanic/Latino,,2024-12-05_17h53.38.972,dissANT,2023.2.3,60.08687382998984,2024-12-05 18h01.30.726646 -0600,
upper.png,congRight.png,right,0,,,,,0,0,0,0,1,32,80,8,259.2564121000469,,,,,,,,,,259.2410676004365,259.2564121000469,259.8068901002407,259.7919164998457,0.55,259.791974700056,259.8068901002407,259.8068901002407,259.90697510074824,260.3072006003931,260.3072006003931,260.3072006003931,260.84294450003654,right,1,0.5203106999397278,None,,,,,,,,,,,,,,,,,,,,,,,,,,,,,,,,,,,,Eclipse,1,24,Female,Hispanic/Latino,,2024-12-05_17h53.38.972,dissANT,2023.2.3,60.08687382998984,2024-12-05 18h01.30.726646 -0600,
both.png,neutralRight.png,left,180,,,,,0,0,0,0,1,33,81,45,260.8570466004312,,,,,,,,,,260.8447679001838,260.8570466004312,261.25689180009067,261.24247730057687,0.4,261.24255080055445,261.25689180009067,261.25689180009067,261.35705310013145,261.7569943005219,261.7569943005219,261.7569943005219,262.2762059001252,left,1,0.5098572000861168,None,,,,,,,,,,,,,,,,,,,,,,,,,,,,,,,,,,,,Eclipse,1,24,Female,Hispanic/Latino,,2024-12-05_17h53.38.972,dissANT,2023.2.3,60.08687382998984,2024-12-05 18h01.30.726646 -0600,
both.png,incongRight.png,right,0,,,,,0,0,0,0,1,34,82,25,262.29019430000335,,,,,,,,,,262.2778088999912,262.29019430000335,262.8400739999488,262.82566270045936,0.55,262.8257673000917,262.8400739999488,262.8400739999488,262.9401890002191,263.34031319990754,263.34031319990754,263.34031319990754,263.9932230003178,right,1,0.6433585993945599,None,,,,,,,,,,,,,,,,,,,,,,,,,,,,,,,,,,,,Eclipse,1,24,Female,Hispanic/Latino,,2024-12-05_17h53.38.972,dissANT,2023.2.3,60.08687382998984,2024-12-05 18h01.30.726646 -0600,
upper.png,neutralLeft.png,left,0,,,,,0,0,0,0,1,35,83,32,264.00683329999447,,,,,,,,,,263.9947482002899,264.00683329999447,264.5068728001788,264.49175010062754,0.5,264.49180330056697,264.5068728001788,264.5068728001788,264.60693400073797,265.00675220042467,265.00675220042467,265.00675220042467,265.45848229993135,left,1,0.44647339917719364,None,,,,,,,,,,,,,,,,,,,,,,,,,,,,,,,,,,,,Eclipse,1,24,Female,Hispanic/Latino,,2024-12-05_17h53.38.972,dissANT,2023.2.3,60.08687382998984,2024-12-05 18h01.30.726646 -0600,
both.png,neutralRight.png,right,0,,,,,0,0,0,0,1,36,84,41,265.4733862001449,,,,,,,,,,265.45982030034065,265.4733862001449,265.9733519004658,265.95943879988045,0.5,265.9595225006342,265.9733519004658,265.9733519004658,266.0736094005406,266.4735213005915,266.4735213005915,266.4735213005915,266.8785145999864,right,1,0.4011265002191067,None,,,,,,,,,,,,,,,,,,,,,,,,,,,,,,,,,,,,Eclipse,1,24,Female,Hispanic/Latino,,2024-12-05_17h53.38.972,dissANT,2023.2.3,60.08687382998984,2024-12-05 18h01.30.726646 -0600,
centre.png,incongLeft.png,left,0,,,,,0,0,0,0,1,37,85,18,266.8903852002695,,,,,,,,,,266.8801276003942,266.8903852002695,267.3901502005756,267.3753856001422,0.5,267.3754700999707,267.3901502005756,267.3901502005756,267.49026960041374,267.8901048004627,267.8901048004627,267.8901048004627,268.2918761000037,right,0,0.39607440028339624,None,,,,,,,,,,,,,,,,,,,,,,,,,,,,,,,,,,,,Eclipse,1,24,Female,Hispanic/Latino,,2024-12-05_17h53.38.972,dissANT,2023.2.3,60.08687382998984,2024-12-05 18h01.30.726646 -0600,
both.png,incongLeft.png,left,0,,,,,0,0,0,0,1,38,86,17,268.30637370049953,,,,,,,,,,268.29327100049704,268.30637370049953,268.7566228006035,268.7417737999931,0.45,268.74183339998126,268.7566228006035,268.7566228006035,268.85679230000824,269.25682280026376,269.25682280026376,269.25682280026376,269.84220239985734,left,1,0.5748092997819185,None,,,,,,,,,,,,,,,,,,,,,,,,,,,,,,,,,,,,Eclipse,1,24,Female,Hispanic/Latino,,2024-12-05_17h53.38.972,dissANT,2023.2.3,60.08687382998984,2024-12-05 18h01.30.726646 -0600,
lower.png,congRight.png,left,180,,,,,0,0,0,0,1,39,87,12,269.8567185001448,,,,,,,,,,269.84361020009965,269.8567185001448,270.2567092003301,270.24137070029974,0.4,270.24143380019814,270.2567092003301,270.2567092003301,270.35623900033534,270.7567002000287,270.7567002000287,270.7567002000287,271.2579228999093,left,1,0.4849060997366905,None,,,,,,,,,,,,,,,,,,,,,,,,,,,,,,,,,,,,Eclipse,1,24,Female,Hispanic/Latino,,2024-12-05_17h53.38.972,dissANT,2023.2.3,60.08687382998984,2024-12-05 18h01.30.726646 -0600,
both.png,incongLeft.png,right,180,,,,,0,0,0,0,1,40,88,21,271.27322840038687,,,,,,,,,,271.2589691001922,271.27322840038687,271.7232337007299,271.70851700007915,0.45,271.70858430024236,271.7232337007299,271.7232337007299,271.8232446005568,272.22334840055555,272.22334840055555,272.22334840055555,272.9761434998363,right,1,0.7355995997786522,None,,,,,,,,,,,,,,,,,,,,,,,,,,,,,,,,,,,,Eclipse,1,24,Female,Hispanic/Latino,,2024-12-05_17h53.38.972,dissANT,2023.2.3,60.08687382998984,2024-12-05 18h01.30.726646 -0600,
blank.png,neutralLeft.png,left,0,,,,,0,0,0,0,1,41,89,35,272.9900850998238,,,,,,,,,,272.9774446999654,272.9900850998238,273.38988470006734,273.37509790062904,0.4,273.3751626005396,273.38988470006734,273.38988470006734,273.4895649002865,273.8897027000785,273.8897027000785,273.8897027000785,274.42692420072854,left,1,0.5311464993283153,None,,,,,,,,,,,,,,,,,,,,,,,,,,,,,,,,,,,,Eclipse,1,24,Female,Hispanic/Latino,,2024-12-05_17h53.38.972,dissANT,2023.2.3,60.08687382998984,2024-12-05 18h01.30.726646 -0600,
centre.png,incongRight.png,left,180,,,,,0,0,0,0,1,42,90,30,274.44006680045277,,,,,,,,,,274.4282511007041,274.44006680045277,274.84009170066565,274.8251384999603,0.4,274.82520390022546,274.84009170066565,274.84009170066565,274.9401229005307,275.3400699002668,275.3400699002668,275.3400699002668,276.0593915004283,left,1,0.7141067991033196,None,,,,,,,,,,,,,,,,,,,,,,,,,,,,,,,,,,,,Eclipse,1,24,Female,Hispanic/Latino,,2024-12-05_17h53.38.972,dissANT,2023.2.3,60.08687382998984,2024-12-05 18h01.30.726646 -0600,
blank.png,congLeft.png,right,180,,,,,0,0,0,0,1,43,91,7,276.0732572004199,,,,,,,,,,276.0610036002472,276.0732572004199,276.47285080049187,276.4589702002704,0.4,276.45905230008066,276.47285080049187,276.47285080049187,276.57310320064425,276.97332760039717,276.97332760039717,276.97332760039717,277.44240520056337,right,1,0.45613620057702065,None,,,,,,,,,,,,,,,,,,,,,,,,,,,,,,,,,,,,Eclipse,1,24,Female,Hispanic/Latino,,2024-12-05_17h53.38.972,dissANT,2023.2.3,60.08687382998984,2024-12-05 18h01.30.726646 -0600,
blank.png,congRight.png,right,0,,,,,0,0,0,0,1,44,92,11,277.4561448004097,,,,,,,,,,277.44385010004044,277.4561448004097,277.90633250027895,277.89193810056895,0.45,277.89201010018587,277.90633250027895,277.90633250027895,278.00661010015756,278.40652670059353,278.40652670059353,278.40652670059353,278.9089339002967,right,1,0.4920217003673315,None,,,,,,,,,,,,,,,,,,,,,,,,,,,,,,,,,,,,Eclipse,1,24,Female,Hispanic/Latino,,2024-12-05_17h53.38.972,dissANT,2023.2.3,60.08687382998984,2024-12-05 18h01.30.726646 -0600,
centre.png,neutralRight.png,right,0,,,,,0,0,0,0,1,45,93,42,278.9231954999268,,,,,,,,,,278.91037049982697,278.9231954999268,279.4731243001297,279.459027800709,0.55,279.4591097002849,279.4731243001297,279.4731243001297,279.573303100653,279.9733119001612,279.9733119001612,279.9733119001612,280.4429961005226,right,1,0.46562020014971495,None,,,,,,,,,,,,,,,,,,,,,,,,,,,,,,,,,,,,Eclipse,1,24,Female,Hispanic/Latino,,2024-12-05_17h53.38.972,dissANT,2023.2.3,60.08687382998984,2024-12-05 18h01.30.726646 -0600,
upper.png,neutralRight.png,right,0,,,,,0,0,0,0,1,46,94,40,280.4566970001906,,,,,,,,,,280.4445235002786,280.4566970001906,280.9562470000237,280.9418282005936,0.5,280.94190040044487,280.9562470000237,280.9562470000237,281.056635200046,281.4566981000826,281.4566981000826,281.4566981000826,281.8419695002958,right,1,0.3780086003243923,None,,,,,,,,,,,,,,,,,,,,,,,,,,,,,,,,,,,,Eclipse,1,24,Female,Hispanic/Latino,,2024-12-05_17h53.38.972,dissANT,2023.2.3,60.08687382998984,2024-12-05 18h01.30.726646 -0600,
blank.png,neutralRight.png,right,0,,,,,0,0,0,0,1,47,95,43,281.85642630048096,,,,,,,,,,281.84350069984794,281.85642630048096,282.40624480042607,282.3919973000884,0.55,282.3920650007203,282.40624480042607,282.40624480042607,282.50677600037307,282.90654690004885,282.90654690004885,282.90654690004885,283.2563527999446,right,1,0.34601609967648983,None,,,,,,,,,,,,,,,,,,,,,,,,,,,,,,,,,,,,Eclipse,1,24,Female,Hispanic/Latino,,2024-12-05_17h53.38.972,dissANT,2023.2.3,60.08687382998984,2024-12-05 18h01.30.726646 -0600,
,,,,,,,,0,0,0,0,,,,,,,,,,,,,,,,,,,,,,,,,,,,,,,,,,,,,,,,,,,283.2565585998818,283.2725830003619,283.2725830003619,322.85897190030664,,,,,,,,,,,,,,,,,,,,,Eclipse,1,24,Female,Hispanic/Latino,,2024-12-05_17h53.38.972,dissANT,2023.2.3,60.08687382998984,2024-12-05 18h01.30.726646 -0600,
upper.png,congRight.png,right,0,,,,,1,0,1,0,0,0,0,8,322.8812062004581,,,,,,,,,,322.877980700694,322.8812062004581,323.4386528003961,323.42450900003314,0.55,323.42459260020405,323.4386528003961,323.4386528003961,323.5383553998545,323.93883390072733,323.93883390072733,323.93883390072733,324.3432886004448,right,1,0.4010136006399989,None,,,,,,,,,,,,,,,,,,,,,,,,,,,,,,,,,,,,Eclipse,1,24,Female,Hispanic/Latino,,2024-12-05_17h53.38.972,dissANT,2023.2.3,60.08687382998984,2024-12-05 18h01.30.726646 -0600,
blank.png,neutralRight.png,left,180,,,,,1,0,1,0,0,1,1,47,324.35535530000925,,,,,,,,,,324.3456493001431,324.35535530000925,324.85546180047095,324.8406493002549,0.5,324.8407171005383,324.85546180047095,324.85546180047095,324.9554359000176,325.3554528001696,325.3554528001696,325.3554528001696,325.905538700521,left,1,0.5432569002732635,None,,,,,,,,,,,,,,,,,,,,,,,,,,,,,,,,,,,,Eclipse,1,24,Female,Hispanic/Latino,,2024-12-05_17h53.38.972,dissANT,2023.2.3,60.08687382998984,2024-12-05 18h01.30.726646 -0600,
both.png,congLeft.png,right,180,,,,,1,0,1,0,0,2,2,5,325.92143690027297,,,,,,,,,,325.9057894004509,325.92143690027297,326.37189250066876,326.3576450003311,0.45,326.35772630013525,326.37189250066876,326.37189250066876,326.47207850031555,326.8720215000212,326.8720215000212,326.8720215000212,327.34270170051605,right,1,0.4672157000750303,None,,,,,,,,,,,,,,,,,,,,,,,,,,,,,,,,,,,,Eclipse,1,24,Female,Hispanic/Latino,,2024-12-05_17h53.38.972,dissANT,2023.2.3,60.08687382998984,2024-12-05 18h01.30.726646 -0600,
lower.png,neutralLeft.png,right,180,,,,,1,0,1,0,0,3,3,36,327.35490529984236,,,,,,,,,,327.3440501000732,327.35490529984236,327.7551159998402,327.7411163998768,0.4,327.74120029993355,327.7551159998402,327.7551159998402,327.8552843006328,328.255531700328,328.255531700328,328.255531700328,328.7075564004481,right,1,0.4354546004906297,None,,,,,,,,,,,,,,,,,,,,,,,,,,,,,,,,,,,,Eclipse,1,24,Female,Hispanic/Latino,,2024-12-05_17h53.38.972,dissANT,2023.2.3,60.08687382998984,2024-12-05 18h01.30.726646 -0600,
blank.png,incongRight.png,left,180,,,,,1,0,1,0,0,4,4,31,328.721992299892,,,,,,,,,,328.70902300067246,328.721992299892,329.1215717000887,329.10545680020005,0.4,329.1054909005761,329.1215717000887,329.1215717000887,329.22200160007924,329.6057467004284,329.6057467004284,329.6219228003174,330.2914535999298,left,1,0.6736016999930143,None,,,,,,,,,,,,,,,,,,,,,,,,,,,,,,,,,,,,Eclipse,1,24,Female,Hispanic/Latino,,2024-12-05_17h53.38.972,dissANT,2023.2.3,60.08687382998984,2024-12-05 18h01.30.726646 -0600,
blank.png,neutralRight.png,right,0,,,,,1,0,1,0,0,5,5,43,330.3053438998759,,,,,,,,,,330.293082700111,330.3053438998759,330.80507040023804,330.7889923006296,0.5,330.7890327004716,330.80507040023804,330.80507040023804,330.9055604999885,331.28866440057755,331.28866440057755,331.3052107002586,331.8747312007472,right,1,0.5745355002582073,None,,,,,,,,,,,,,,,,,,,,,,,,,,,,,,,,,,,,Eclipse,1,24,Female,Hispanic/Latino,,2024-12-05_17h53.38.972,dissANT,2023.2.3,60.08687382998984,2024-12-05 18h01.30.726646 -0600,
lower.png,incongRight.png,left,180,,,,,1,0,1,0,0,6,6,28,331.88866449985653,,,,,,,,,,331.87628890015185,331.88866449985653,332.2884692000225,332.27474940009415,0.4,332.27482050005347,332.2884692000225,332.2884692000225,332.38880200032145,332.78871840052307,332.78871840052307,332.78871840052307,333.5078696999699,left,1,0.7097359001636505,None,,,,,,,,,,,,,,,,,,,,,,,,,,,,,,,,,,,,Eclipse,1,24,Female,Hispanic/Latino,,2024-12-05_17h53.38.972,dissANT,2023.2.3,60.08687382998984,2024-12-05 18h01.30.726646 -0600,
centre.png,neutralRight.png,left,180,,,,,1,0,1,0,0,7,7,46,333.5216915002093,,,,,,,,,,333.5093833003193,333.5216915002093,334.0217337999493,334.0067273005843,0.5,334.006784000434,334.0217337999493,334.0217337999493,334.121558399871,334.52131529990584,334.52131529990584,334.52131529990584,334.9746623998508,left,1,0.44698250014334917,None,,,,,,,,,,,,,,,,,,,,,,,,,,,,,,,,,,,,Eclipse,1,24,Female,Hispanic/Latino,,2024-12-05_17h53.38.972,dissANT,2023.2.3,60.08687382998984,2024-12-05 18h01.30.726646 -0600,
blank.png,congLeft.png,left,0,,,,,1,0,1,0,0,8,8,3,334.98846700042486,,,,,,,,,,334.9762967005372,334.98846700042486,335.43847510032356,335.4240127000958,0.45,335.4240842005238,335.43847510032356,335.43847510032356,335.5379731003195,335.9385518003255,335.9385518003255,335.9385518003255,336.5576284006238,left,1,0.6068027000874281,None,,,,,,,,,,,,,,,,,,,,,,,,,,,,,,,,,,,,Eclipse,1,24,Female,Hispanic/Latino,,2024-12-05_17h53.38.972,dissANT,2023.2.3,60.08687382998984,2024-12-05 18h01.30.726646 -0600,
centre.png,incongLeft.png,left,0,,,,,1,0,1,0,0,9,9,18,336.5719471005723,,,,,,,,,,336.5589828006923,336.5719471005723,336.9719588998705,336.9559377003461,0.4,336.9559781001881,336.9719588998705,336.9719588998705,337.0713705001399,337.45507820043713,337.45507820043713,337.4716595001519,338.09205230046064,left,1,0.6289550997316837,None,,,,,,,,,,,,,,,,,,,,,,,,,,,,,,,,,,,,Eclipse,1,24,Female,Hispanic/Latino,,2024-12-05_17h53.38.972,dissANT,2023.2.3,60.08687382998984,2024-12-05 18h01.30.726646 -0600,
blank.png,incongLeft.png,left,0,,,,,1,0,1,0,0,10,10,19,338.1051332000643,,,,,,,,,,338.09389400016516,338.1051332000643,338.6049310006201,338.5906695006415,0.5,338.59074660018086,338.6049310006201,338.6049310006201,338.70511389989406,339.10529260057956,339.10529260057956,339.10529260057956,339.6552835004404,left,1,0.5389065993949771,None,,,,,,,,,,,,,,,,,,,,,,,,,,,,,,,,,,,,Eclipse,1,24,Female,Hispanic/Latino,,2024-12-05_17h53.38.972,dissANT,2023.2.3,60.08687382998984,2024-12-05 18h01.30.726646 -0600,
centre.png,neutralLeft.png,left,0,,,,,1,0,1,0,0,11,11,34,339.67121910024434,,,,,,,,,,339.65574950072914,339.67121910024434,340.2212347006425,340.20664650015533,0.55,340.20670760050416,340.2212347006425,340.2212347006425,340.3216054001823,340.72186669986695,340.72186669986695,340.72186669986695,341.1746040005237,left,1,0.4485586993396282,None,,,,,,,,,,,,,,,,,,,,,,,,,,,,,,,,,,,,Eclipse,1,24,Female,Hispanic/Latino,,2024-12-05_17h53.38.972,dissANT,2023.2.3,60.08687382998984,2024-12-05 18h01.30.726646 -0600,
centre.png,congRight.png,left,180,,,,,1,0,1,0,0,12,12,14,341.1882888004184,,,,,,,,,,341.17631930019706,341.1882888004184,341.68826700001955,341.67355090007186,0.5,341.6736259004101,341.68826700001955,341.68826700001955,341.7883726004511,342.18835149984807,342.18835149984807,342.18835149984807,342.6738392999396,left,1,0.4709644000977278,None,,,,,,,,,,,,,,,,,,,,,,,,,,,,,,,,,,,,Eclipse,1,24,Female,Hispanic/Latino,,2024-12-05_17h53.38.972,dissANT,2023.2.3,60.08687382998984,2024-12-05 18h01.30.726646 -0600,
both.png,congLeft.png,left,0,,,,,1,0,1,0,0,13,13,1,342.6883387006819,,,,,,,,,,342.67555129993707,342.6883387006819,343.08784680068493,343.07392359990627,0.4,343.07400619983673,343.08784680068493,343.08784680068493,343.1883645998314,343.5883451998234,343.5883451998234,343.5883451998234,344.00733460020274,left,1,0.40643039997667074,None,,,,,,,,,,,,,,,,,,,,,,,,,,,,,,,,,,,,Eclipse,1,24,Female,Hispanic/Latino,,2024-12-05_17h53.38.972,dissANT,2023.2.3,60.08687382998984,2024-12-05 18h01.30.726646 -0600,
both.png,incongRight.png,right,0,,,,,1,0,1,0,0,14,14,25,344.02165590040386,,,,,,,,,,344.00870649982244,344.02165590040386,344.42142680007964,344.4066039007157,0.4,344.4066611006856,344.42142680007964,344.42142680007964,344.5215262006968,344.9218214005232,344.9218214005232,344.9218214005232,345.5082411998883,right,1,0.5708197997882962,None,,,,,,,,,,,,,,,,,,,,,,,,,,,,,,,,,,,,Eclipse,1,24,Female,Hispanic/Latino,,2024-12-05_17h53.38.972,dissANT,2023.2.3,60.08687382998984,2024-12-05 18h01.30.726646 -0600,
both.png,incongLeft.png,right,180,,,,,1,0,1,0,0,15,15,21,345.5215110005811,,,,,,,,,,345.5100091006607,345.5215110005811,346.07151870056987,346.05695760063827,0.55,346.05702850036323,346.07151870056987,346.07151870056987,346.1715665003285,346.57149829994887,346.57149829994887,346.57149829994887,347.2744348999113,right,1,0.6931221000850201,None,,,,,,,,,,,,,,,,,,,,,,,,,,,,,,,,,,,,Eclipse,1,24,Female,Hispanic/Latino,,2024-12-05_17h53.38.972,dissANT,2023.2.3,60.08687382998984,2024-12-05 18h01.30.726646 -0600,
upper.png,incongRight.png,right,0,,,,,1,0,1,0,0,16,16,24,347.2880237000063,,,,,,,,,,347.2759071998298,347.2880237000063,347.68790300004184,347.6731101004407,0.4,347.6731825005263,347.68790300004184,347.68790300004184,347.78819980006665,348.18841660022736,348.18841660022736,348.18841660022736,348.64023730065674,left,0,0.43673749919980764,None,,,,,,,,,,,,,,,,,,,,,,,,,,,,,,,,,,,,Eclipse,1,24,Female,Hispanic/Latino,,2024-12-05_17h53.38.972,dissANT,2023.2.3,60.08687382998984,2024-12-05 18h01.30.726646 -0600,
blank.png,neutralLeft.png,left,0,,,,,1,0,1,0,0,17,17,35,348.65466510038823,,,,,,,,,,348.6417265003547,348.65466510038823,349.15504680015147,349.139951299876,0.5,349.14001009985805,349.15504680015147,349.15504680015147,349.2548214001581,349.6549233002588,349.6549233002588,349.6549233002588,350.2251479001716,left,1,0.5655713994055986,None,,,,,,,,,,,,,,,,,,,,,,,,,,,,,,,,,,,,Eclipse,1,24,Female,Hispanic/Latino,,2024-12-05_17h53.38.972,dissANT,2023.2.3,60.08687382998984,2024-12-05 18h01.30.726646 -0600,
blank.png,congLeft.png,right,180,,,,,1,0,1,0,0,18,18,7,350.2380634006113,,,,,,,,,,350.2273038998246,350.2380634006113,350.63810830004513,350.62210690043867,0.4,350.62215569987893,350.63810830004513,350.63810830004513,350.73809930030257,351.1213783007115,351.1213783007115,351.13805020041764,351.7574129998684,right,1,0.6229616003111005,None,,,,,,,,,,,,,,,,,,,,,,,,,,,,,,,,,,,,Eclipse,1,24,Female,Hispanic/Latino,,2024-12-05_17h53.38.972,dissANT,2023.2.3,60.08687382998984,2024-12-05 18h01.30.726646 -0600,
upper.png,incongLeft.png,left,0,,,,,1,0,1,0,0,19,19,16,351.77133909985423,,,,,,,,,,351.75889489986,351.77133909985423,352.2711668005213,352.2563412999734,0.5,352.2564056003466,352.2711668005213,352.2711668005213,352.3711644001305,352.7714424999431,352.7714424999431,352.7714424999431,353.32403100002557,left,1,0.5474767005071044,None,,,,,,,,,,,,,,,,,,,,,,,,,,,,,,,,,,,,Eclipse,1,24,Female,Hispanic/Latino,,2024-12-05_17h53.38.972,dissANT,2023.2.3,60.08687382998984,2024-12-05 18h01.30.726646 -0600,
both.png,congRight.png,left,180,,,,,1,0,1,0,0,20,20,13,353.3376521002501,,,,,,,,,,353.32565770018846,353.3376521002501,353.73822670057416,353.7228824002668,0.4,353.7229404002428,353.73822670057416,353.73822670057416,353.8381985006854,354.23812639992684,354.23812639992684,354.23812639992684,354.790665300563,left,1,0.5423395000398159,None,,,,,,,,,,,,,,,,,,,,,,,,,,,,,,,,,,,,Eclipse,1,24,Female,Hispanic/Latino,,2024-12-05_17h53.38.972,dissANT,2023.2.3,60.08687382998984,2024-12-05 18h01.30.726646 -0600,
centre.png,congRight.png,right,0,,,,,1,0,1,0,0,21,21,10,354.8048767000437,,,,,,,,,,354.7920845998451,354.8048767000437,355.35475530009717,355.33960700035095,0.55,355.3396653998643,355.35475530009717,355.35475530009717,355.4550024000928,355.8549228999764,355.8549228999764,355.8549228999764,356.33776250015944,right,1,0.47271199990063906,None,,,,,,,,,,,,,,,,,,,,,,,,,,,,,,,,,,,,Eclipse,1,24,Female,Hispanic/Latino,,2024-12-05_17h53.38.972,dissANT,2023.2.3,60.08687382998984,2024-12-05 18h01.30.726646 -0600,
both.png,neutralLeft.png,left,0,,,,,1,0,1,0,0,22,22,33,356.35392910055816,,,,,,,,,,356.33804490044713,356.35392910055816,356.85465360060334,356.8392353001982,0.5,356.839288700372,356.85465360060334,356.85465360060334,356.9548479998484,357.3547812998295,357.3547812998295,357.3547812998295,357.8913779007271,left,1,0.5261157993227243,None,,,,,,,,,,,,,,,,,,,,,,,,,,,,,,,,,,,,Eclipse,1,24,Female,Hispanic/Latino,,2024-12-05_17h53.38.972,dissANT,2023.2.3,60.08687382998984,2024-12-05 18h01.30.726646 -0600,
centre.png,neutralLeft.png,right,180,,,,,1,0,1,0,0,23,23,38,357.9044764004648,,,,,,,,,,357.89276340045035,357.9044764004648,358.45426170062274,358.4397996002808,0.55,358.4398588007316,358.45426170062274,358.45426170062274,358.5547154005617,358.9546234998852,358.9546234998852,358.9546234998852,359.60783490072936,right,1,0.6456047995015979,None,,,,,,,,,,,,,,,,,,,,,,,,,,,,,,,,,,,,Eclipse,1,24,Female,Hispanic/Latino,,2024-12-05_17h53.38.972,dissANT,2023.2.3,60.08687382998984,2024-12-05 18h01.30.726646 -0600,
centre.png,incongLeft.png,right,180,,,,,1,0,1,0,0,24,24,22,359.6211154004559,,,,,,,,,,359.60963180009276,359.6211154004559,360.0710797999054,360.0567556004971,0.45,360.0568277006969,360.0710797999054,360.0710797999054,360.17121750023216,360.5712783001363,360.5712783001363,360.5712783001363,361.2062731003389,right,1,0.6213726000860333,None,,,,,,,,,,,,,,,,,,,,,,,,,,,,,,,,,,,,Eclipse,1,24,Female,Hispanic/Latino,,2024-12-05_17h53.38.972,dissANT,2023.2.3,60.08687382998984,2024-12-05 18h01.30.726646 -0600,
blank.png,congRight.png,left,180,,,,,1,0,1,0,0,25,25,15,361.2211319003254,,,,,,,,,,361.20735940057784,361.2211319003254,361.621058200486,361.60711580049247,0.4,361.6071970006451,361.621058200486,361.621058200486,361.7211410999298,362.121142600663,362.121142600663,362.121142600663,362.6925161005929,left,1,0.5534781003370881,None,,,,,,,,,,,,,,,,,,,,,,,,,,,,,,,,,,,,Eclipse,1,24,Female,Hispanic/Latino,,2024-12-05_17h53.38.972,dissANT,2023.2.3,60.08687382998984,2024-12-05 18h01.30.726646 -0600,
upper.png,congLeft.png,left,0,,,,,1,0,1,0,0,26,26,0,362.7044358002022,,,,,,,,,,362.6941750003025,362.7044358002022,363.2044876003638,363.1900315005332,0.5,363.19010270014405,363.2044876003638,363.2044876003638,363.30423220060766,363.7045264001936,363.7045264001936,363.7045264001936,364.15751599986106,left,1,0.4405773999169469,None,,,,,,,,,,,,,,,,,,,,,,,,,,,,,,,,,,,,Eclipse,1,24,Female,Hispanic/Latino,,2024-12-05_17h53.38.972,dissANT,2023.2.3,60.08687382998984,2024-12-05 18h01.30.726646 -0600,
centre.png,congLeft.png,right,180,,,,,1,0,1,0,0,27,27,6,364.1710171001032,,,,,,,,,,364.15929270070046,364.1710171001032,364.6710397005081,364.6544139003381,0.5,364.654428800568,364.6710397005081,364.6710397005081,364.7712286999449,365.15455490071326,365.15455490071326,365.17094030044973,365.6245951000601,right,1,0.4666943997144699,None,,,,,,,,,,,,,,,,,,,,,,,,,,,,,,,,,,,,Eclipse,1,24,Female,Hispanic/Latino,,2024-12-05_17h53.38.972,dissANT,2023.2.3,60.08687382998984,2024-12-05 18h01.30.726646 -0600,
centre.png,congLeft.png,left,0,,,,,1,0,1,0,0,28,28,2,365.637458300218,,,,,,,,,,365.6263446006924,365.637458300218,366.1876245001331,366.17323330044746,0.55,366.1733054006472,366.1876245001331,366.1876245001331,366.2877195002511,366.6878005005419,366.6878005005419,366.6878005005419,367.35752890072763,left,1,0.6578313000500202,None,,,,,,,,,,,,,,,,,,,,,,,,,,,,,,,,,,,,Eclipse,1,24,Female,Hispanic/Latino,,2024-12-05_17h53.38.972,dissANT,2023.2.3,60.08687382998984,2024-12-05 18h01.30.726646 -0600,
both.png,congRight.png,right,0,,,,,1,0,1,0,0,29,29,9,367.3709396002814,,,,,,,,,,367.3585061999038,367.3709396002814,367.87089090049267,367.8569539003074,0.5,367.8570391004905,367.87089090049267,367.87089090049267,367.9710697000846,368.3710766006261,368.3710766006261,368.3710766006261,368.8072771001607,right,1,0.4238382000476122,None,,,,,,,,,,,,,,,,,,,,,,,,,,,,,,,,,,,,Eclipse,1,24,Female,Hispanic/Latino,,2024-12-05_17h53.38.972,dissANT,2023.2.3,60.08687382998984,2024-12-05 18h01.30.726646 -0600,
upper.png,neutralRight.png,right,0,,,,,1,0,1,0,0,30,30,40,368.82085639983416,,,,,,,,,,368.80907410010695,368.82085639983416,369.2705684006214,369.25435939989984,0.45,369.25436979997903,369.2705684006214,369.2705684006214,369.37067010067403,369.7537918007001,369.7537918007001,369.7704288000241,370.1212065005675,right,1,0.35079870000481606,None,,,,,,,,,,,,,,,,,,,,,,,,,,,,,,,,,,,,Eclipse,1,24,Female,Hispanic/Latino,,2024-12-05_17h53.38.972,dissANT,2023.2.3,60.08687382998984,2024-12-05 18h01.30.726646 -0600,
centre.png,incongRight.png,right,0,,,,,1,0,1,0,0,31,31,26,370.137183399871,,,,,,,,,,370.12145789992064,370.137183399871,370.5372213004157,370.5208467002958,0.4,370.52086270041764,370.5372213004157,370.5372213004157,370.6370613006875,371.02070480026305,371.02070480026305,371.03757080063224,371.47384830005467,right,1,0.4444833006709814,None,,,,,,,,,,,,,,,,,,,,,,,,,,,,,,,,,,,,Eclipse,1,24,Female,Hispanic/Latino,,2024-12-05_17h53.38.972,dissANT,2023.2.3,60.08687382998984,2024-12-05 18h01.30.726646 -0600,
both.png,incongRight.png,left,180,,,,,1,0,1,0,0,32,32,29,371.4876063000411,,,,,,,,,,371.4757091002539,371.4876063000411,371.88748230040073,371.87272830028087,0.4,371.872786000371,371.88748230040073,371.88748230040073,371.98712270054966,372.38786770030856,372.38786770030856,372.38786770030856,373.2068360000849,left,1,0.8092587003484368,None,,,,,,,,,,,,,,,,,,,,,,,,,,,,,,,,,,,,Eclipse,1,24,Female,Hispanic/Latino,,2024-12-05_17h53.38.972,dissANT,2023.2.3,60.08687382998984,2024-12-05 18h01.30.726646 -0600,
lower.png,incongLeft.png,right,180,,,,,1,0,1,0,0,33,33,20,373.2207523006946,,,,,,,,,,373.2082459004596,373.2207523006946,373.7208251003176,373.70595329999924,0.5,373.70601250045,373.7208251003176,373.7208251003176,373.82047520019114,374.22104710061103,374.22104710061103,374.22104710061103,374.80666969995946,right,1,0.5796948997303843,None,,,,,,,,,,,,,,,,,,,,,,,,,,,,,,,,,,,,Eclipse,1,24,Female,Hispanic/Latino,,2024-12-05_17h53.38.972,dissANT,2023.2.3,60.08687382998984,2024-12-05 18h01.30.726646 -0600,
blank.png,neutralLeft.png,right,180,,,,,1,0,1,0,0,34,34,39,374.8207344999537,,,,,,,,,,374.8080851007253,374.8207344999537,375.3705990007147,375.3562568007037,0.55,375.3563387002796,375.3705990007147,375.3705990007147,375.47086049988866,375.8705171002075,375.8705171002075,375.8705171002075,376.3228334998712,right,1,0.4457668997347355,None,,,,,,,,,,,,,,,,,,,,,,,,,,,,,,,,,,,,Eclipse,1,24,Female,Hispanic/Latino,,2024-12-05_17h53.38.972,dissANT,2023.2.3,60.08687382998984,2024-12-05 18h01.30.726646 -0600,
both.png,neutralRight.png,right,0,,,,,1,0,1,0,0,35,35,41,376.3373813005164,,,,,,,,,,376.32438440062106,376.3373813005164,376.78755460027605,376.7729470003396,0.45,376.7730178004131,376.78755460027605,376.78755460027605,376.8870747005567,377.2875088006258,377.2875088006258,377.2875088006258,377.706703200005,right,1,0.40249460004270077,None,,,,,,,,,,,,,,,,,,,,,,,,,,,,,,,,,,,,Eclipse,1,24,Female,Hispanic/Latino,,2024-12-05_17h53.38.972,dissANT,2023.2.3,60.08687382998984,2024-12-05 18h01.30.726646 -0600,
both.png,neutralRight.png,left,180,,,,,1,0,1,0,0,36,36,45,377.7208455000073,,,,,,,,,,377.70819560065866,377.7208455000073,378.2707590004429,378.2557252999395,0.55,378.255786200054,378.2707590004429,378.2707590004429,378.3708433005959,378.77090040035546,378.77090040035546,378.77090040035546,379.40458879992366,left,1,0.6249524997547269,None,,,,,,,,,,,,,,,,,,,,,,,,,,,,,,,,,,,,Eclipse,1,24,Female,Hispanic/Latino,,2024-12-05_17h53.38.972,dissANT,2023.2.3,60.08687382998984,2024-12-05 18h01.30.726646 -0600,
blank.png,congRight.png,right,0,,,,,1,0,1,0,0,37,37,11,379.4203267004341,,,,,,,,,,379.405025199987,379.4203267004341,379.82062310073525,379.80504330061376,0.4,379.80510730016977,379.82062310073525,379.82062310073525,379.92067120037973,380.30418620072305,380.30418620072305,380.3207053998485,380.78950399998575,right,1,0.4686431000009179,None,,,,,,,,,,,,,,,,,,,,,,,,,,,,,,,,,,,,Eclipse,1,24,Female,Hispanic/Latino,,2024-12-05_17h53.38.972,dissANT,2023.2.3,60.08687382998984,2024-12-05 18h01.30.726646 -0600,
blank.png,incongRight.png,right,0,,,,,1,0,1,0,0,38,38,27,380.80399189982563,,,,,,,,,,380.7909603007138,380.80399189982563,381.2539416998625,381.2398846000433,0.45,381.2399556003511,381.2539416998625,381.2539416998625,381.3540940005332,381.75417130067945,381.75417130067945,381.75417130067945,382.3231100002304,right,1,0.5526923006400466,None,,,,,,,,,,,,,,,,,,,,,,,,,,,,,,,,,,,,Eclipse,1,24,Female,Hispanic/Latino,,2024-12-05_17h53.38.972,dissANT,2023.2.3,60.08687382998984,2024-12-05 18h01.30.726646 -0600,
blank.png,incongLeft.png,right,180,,,,,1,0,1,0,0,39,39,23,382.33705960027874,,,,,,,,,,382.32460170052946,382.33705960027874,382.7873896006495,382.7730572000146,0.45,382.77313970029354,382.7873896006495,382.7873896006495,382.88745640031993,383.28740030061454,383.28740030061454,383.28740030061454,383.9907939005643,right,1,0.6907150000333786,None,,,,,,,,,,,,,,,,,,,,,,,,,,,,,,,,,,,,Eclipse,1,24,Female,Hispanic/Latino,,2024-12-05_17h53.38.972,dissANT,2023.2.3,60.08687382998984,2024-12-05 18h01.30.726646 -0600,
both.png,incongLeft.png,left,0,,,,,1,0,1,0,0,40,40,17,384.0045544002205,,,,,,,,,,383.992517599836,384.0045544002205,384.50411160010844,384.48847230058163,0.5,384.48852550052106,384.50411160010844,384.50411160010844,384.60392360016704,385.00408570002764,385.00408570002764,385.00408570002764,385.62289919983596,left,1,0.609587199985981,None,,,,,,,,,,,,,,,,,,,,,,,,,,,,,,,,,,,,Eclipse,1,24,Female,Hispanic/Latino,,2024-12-05_17h53.38.972,dissANT,2023.2.3,60.08687382998984,2024-12-05 18h01.30.726646 -0600,
centre.png,neutralRight.png,right,0,,,,,1,0,1,0,0,41,41,42,385.6373405000195,,,,,,,,,,385.6243457002565,385.6373405000195,386.1374499006197,386.12120170053095,0.5,386.12124320026487,386.1374499006197,386.1374499006197,386.2368181999773,386.62064590025693,386.62064590025693,386.6372870001942,387.0396555000916,right,1,0.4070474999025464,None,,,,,,,,,,,,,,,,,,,,,,,,,,,,,,,,,,,,Eclipse,1,24,Female,Hispanic/Latino,,2024-12-05_17h53.38.972,dissANT,2023.2.3,60.08687382998984,2024-12-05 18h01.30.726646 -0600,
lower.png,congLeft.png,right,180,,,,,1,0,1,0,0,42,42,4,387.05416490044445,,,,,,,,,,387.0412086006254,387.05416490044445,387.5042847003788,387.4888057000935,0.45,387.48885140009224,387.5042847003788,387.5042847003788,387.6040480006486,388.00355419982225,388.00355419982225,388.00355419982225,388.52081689983606,right,1,0.500182100571692,None,,,,,,,,,,,,,,,,,,,,,,,,,,,,,,,,,,,,Eclipse,1,24,Female,Hispanic/Latino,,2024-12-05_17h53.38.972,dissANT,2023.2.3,60.08687382998984,2024-12-05 18h01.30.726646 -0600,
lower.png,congRight.png,left,180,,,,,1,0,1,0,0,43,43,12,388.5366355003789,,,,,,,,,,388.52111859992146,388.5366355003789,388.98683810047805,388.97178550064564,0.45,388.97183530032635,388.98683810047805,388.98683810047805,389.087410800159,389.48698140028864,389.48698140028864,389.48698140028864,390.03781250026077,left,1,0.5406826995313168,None,,,,,,,,,,,,,,,,,,,,,,,,,,,,,,,,,,,,Eclipse,1,24,Female,Hispanic/Latino,,2024-12-05_17h53.38.972,dissANT,2023.2.3,60.08687382998984,2024-12-05 18h01.30.726646 -0600,
upper.png,neutralLeft.png,left,0,,,,,1,0,1,0,0,44,44,32,390.05326060019433,,,,,,,,,,390.03841750044376,390.05326060019433,390.60355330072343,390.5869981003925,0.55,390.58701410051435,390.60355330072343,390.60355330072343,390.7031864002347,391.0871096001938,391.0871096001938,391.1038887007162,391.5726123005152,left,1,0.48062129970639944,None,,,,,,,,,,,,,,,,,,,,,,,,,,,,,,,,,,,,Eclipse,1,24,Female,Hispanic/Latino,,2024-12-05_17h53.38.972,dissANT,2023.2.3,60.08687382998984,2024-12-05 18h01.30.726646 -0600,
both.png,neutralLeft.png,right,180,,,,,1,0,1,0,0,45,45,37,391.5872892001644,,,,,,,,,,391.5739489002153,391.5872892001644,392.03686970006675,392.02036920003593,0.45,392.0203849999234,392.03686970006675,392.03686970006675,392.13728890009224,392.5203749006614,392.5203749006614,392.53716170042753,393.0226618004963,right,1,0.49429950024932623,None,,,,,,,,,,,,,,,,,,,,,,,,,,,,,,,,,,,,Eclipse,1,24,Female,Hispanic/Latino,,2024-12-05_17h53.38.972,dissANT,2023.2.3,60.08687382998984,2024-12-05 18h01.30.726646 -0600,
lower.png,neutralRight.png,left,180,,,,,1,0,1,0,0,46,46,44,393.03741450048983,,,,,,,,,,393.0240918006748,393.03741450048983,393.48662200011313,393.4712155004963,0.45,393.4712585005909,393.48662200011313,393.48662200011313,393.58722139988095,393.97036430053413,393.97036430053413,393.987278200686,394.55672070011497,left,1,0.5705086002126336,None,,,,,,,,,,,,,,,,,,,,,,,,,,,,,,,,,,,,Eclipse,1,24,Female,Hispanic/Latino,,2024-12-05_17h53.38.972,dissANT,2023.2.3,60.08687382998984,2024-12-05 18h01.30.726646 -0600,
centre.png,incongRight.png,left,180,,,,,1,0,1,0,0,47,47,30,394.570341700688,,,,,,,,,,394.5584093006328,394.570341700688,395.12007930036634,395.1057951999828,0.55,395.10586670041084,395.12007930036634,395.12007930036634,395.21988680027425,395.62047140020877,395.62047140020877,395.62047140020877,395.99007329996675,right,0,0.36269470024853945,None,,,,,,,,,,,,,,,,,,,,,,,,,,,,,,,,,,,,Eclipse,1,24,Female,Hispanic/Latino,,2024-12-05_17h53.38.972,dissANT,2023.2.3,60.08687382998984,2024-12-05 18h01.30.726646 -0600,
centre.png,neutralLeft.png,right,180,,,,,1,0,1,0,1,0,48,38,396.00377340056,,,,,,,,,,395.99161319993436,396.00377340056,396.553537200205,396.5376752000302,0.55,396.5377178005874,396.553537200205,396.553537200205,396.6538213007152,397.03711079992354,397.03711079992354,397.05375710036606,397.5567036001012,right,1,0.5164320003241301,None,,,,,,,,,,,,,,,,,,,,,,,,,,,,,,,,,,,,Eclipse,1,24,Female,Hispanic/Latino,,2024-12-05_17h53.38.972,dissANT,2023.2.3,60.08687382998984,2024-12-05 18h01.30.726646 -0600,
upper.png,neutralRight.png,right,0,,,,,1,0,1,0,1,1,49,40,397.5704348003492,,,,,,,,,,397.55767210014164,397.5704348003492,397.970169399865,397.95646980032325,0.4,397.9565510004759,397.970169399865,397.970169399865,398.07048390060663,398.4701950000599,398.4701950000599,398.4701950000599,399.07444929983467,right,1,0.6005447003990412,None,,,,,,,,,,,,,,,,,,,,,,,,,,,,,,,,,,,,Eclipse,1,24,Female,Hispanic/Latino,,2024-12-05_17h53.38.972,dissANT,2023.2.3,60.08687382998984,2024-12-05 18h01.30.726646 -0600,
centre.png,congLeft.png,left,0,,,,,1,0,1,0,1,2,50,2,399.0869139004499,,,,,,,,,,399.0760991005227,399.0869139004499,399.4868221003562,399.4707014998421,0.4,399.4707427006215,399.4868221003562,399.4868221003562,399.58713490050286,399.97050270065665,399.97050270065665,399.9870213000104,400.65738380048424,left,1,0.6830406999215484,None,,,,,,,,,,,,,,,,,,,,,,,,,,,,,,,,,,,,Eclipse,1,24,Female,Hispanic/Latino,,2024-12-05_17h53.38.972,dissANT,2023.2.3,60.08687382998984,2024-12-05 18h01.30.726646 -0600,
blank.png,incongLeft.png,right,180,,,,,1,0,1,0,1,3,51,23,400.67024040035903,,,,,,,,,,400.6591254007071,400.67024040035903,401.17017159983516,401.15595899987966,0.5,401.15602610073984,401.17017159983516,401.17017159983516,401.27014230005443,401.6704413006082,401.6704413006082,401.6704413006082,402.3405515002087,right,1,0.6530239004641771,None,,,,,,,,,,,,,,,,,,,,,,,,,,,,,,,,,,,,Eclipse,1,24,Female,Hispanic/Latino,,2024-12-05_17h53.38.972,dissANT,2023.2.3,60.08687382998984,2024-12-05 18h01.30.726646 -0600,
blank.png,neutralRight.png,right,0,,,,,1,0,1,0,1,4,52,43,402.3535545002669,,,,,,,,,,402.34191109985113,402.3535545002669,402.75350480061024,402.7391487006098,0.4,402.739220100455,402.75350480061024,402.75350480061024,402.8533250000328,403.25363070052117,403.25363070052117,403.25363070052117,403.82237740047276,right,1,0.562474999576807,None,,,,,,,,,,,,,,,,,,,,,,,,,,,,,,,,,,,,Eclipse,1,24,Female,Hispanic/Latino,,2024-12-05_17h53.38.972,dissANT,2023.2.3,60.08687382998984,2024-12-05 18h01.30.726646 -0600,
centre.png,incongLeft.png,right,180,,,,,1,0,1,0,1,5,53,22,403.8369174003601,,,,,,,,,,403.8237248007208,403.8369174003601,404.3868947001174,404.37213730067015,0.55,404.3722069002688,404.3868947001174,404.3868947001174,404.48685100022703,404.8868922004476,404.8868922004476,404.8868922004476,405.4391288999468,right,1,0.5452987002208829,None,,,,,,,,,,,,,,,,,,,,,,,,,,,,,,,,,,,,Eclipse,1,24,Female,Hispanic/Latino,,2024-12-05_17h53.38.972,dissANT,2023.2.3,60.08687382998984,2024-12-05 18h01.30.726646 -0600,
both.png,incongLeft.png,right,180,,,,,1,0,1,0,1,6,54,21,405.45369060058147,,,,,,,,,,405.4407542999834,405.45369060058147,405.8532782001421,405.83859200030565,0.4,405.83865670021623,405.8532782001421,405.8532782001421,405.9536013007164,406.3531758002937,406.3531758002937,406.3531758002937,406.869830599986,right,1,0.5086771994829178,None,,,,,,,,,,,,,,,,,,,,,,,,,,,,,,,,,,,,Eclipse,1,24,Female,Hispanic/Latino,,2024-12-05_17h53.38.972,dissANT,2023.2.3,60.08687382998984,2024-12-05 18h01.30.726646 -0600,
centre.png,neutralLeft.png,left,0,,,,,1,0,1,0,1,7,55,34,406.8861646000296,,,,,,,,,,406.87015060056,406.8861646000296,407.43648019991815,407.41988230030984,0.55,407.41989149991423,407.43648019991815,407.43648019991815,407.5365896001458,407.9202733999118,407.9202733999118,407.93674670066684,408.54128370061517,left,1,0.6128430999815464,None,,,,,,,,,,,,,,,,,,,,,,,,,,,,,,,,,,,,Eclipse,1,24,Female,Hispanic/Latino,,2024-12-05_17h53.38.972,dissANT,2023.2.3,60.08687382998984,2024-12-05 18h01.30.726646 -0600,
both.png,neutralRight.png,right,0,,,,,1,0,1,0,1,8,56,41,408.5533600002527,,,,,,,,,,408.54326440021396,408.5533600002527,408.9532930003479,408.93907530047,0.4,408.9391477005556,408.9532930003479,408.9532930003479,409.05347289983183,409.4534464003518,409.4534464003518,409.4534464003518,409.8730426998809,right,1,0.41644940059632063,None,,,,,,,,,,,,,,,,,,,,,,,,,,,,,,,,,,,,Eclipse,1,24,Female,Hispanic/Latino,,2024-12-05_17h53.38.972,dissANT,2023.2.3,60.08687382998984,2024-12-05 18h01.30.726646 -0600,
blank.png,incongLeft.png,left,0,,,,,1,0,1,0,1,9,57,19,409.8868570998311,,,,,,,,,,409.87445150036365,409.8868570998311,410.3368166005239,410.3216409999877,0.45,410.32169840019196,410.3368166005239,410.3368166005239,410.4368155999109,410.8368928004056,410.8368928004056,410.8368928004056,411.4712658999488,left,1,0.6234127003699541,None,,,,,,,,,,,,,,,,,,,,,,,,,,,,,,,,,,,,Eclipse,1,24,Female,Hispanic/Latino,,2024-12-05_17h53.38.972,dissANT,2023.2.3,60.08687382998984,2024-12-05 18h01.30.726646 -0600,
lower.png,incongLeft.png,right,180,,,,,1,0,1,0,1,10,58,20,411.4862935002893,,,,,,,,,,411.4723061006516,411.4862935002893,411.9865985000506,411.97199750039726,0.5,411.97207850031555,411.9865985000506,411.9865985000506,412.0863904003054,412.4867171002552,412.4867171002552,412.4867171002552,413.50582899991423,right,1,1.0077493004500866,None,,,,,,,,,,,,,,,,,,,,,,,,,,,,,,,,,,,,Eclipse,1,24,Female,Hispanic/Latino,,2024-12-05_17h53.38.972,dissANT,2023.2.3,60.08687382998984,2024-12-05 18h01.30.726646 -0600,
both.png,neutralLeft.png,left,0,,,,,1,0,1,0,1,11,59,33,413.52003150060773,,,,,,,,,,413.507521700114,413.52003150060773,414.0197903001681,414.00489130057395,0.5,414.0049517005682,414.0197903001681,414.0197903001681,414.1199240004644,414.5201278999448,414.5201278999448,414.5201278999448,415.08930900041014,left,1,0.5627985000610352,None,,,,,,,,,,,,,,,,,,,,,,,,,,,,,,,,,,,,Eclipse,1,24,Female,Hispanic/Latino,,2024-12-05_17h53.38.972,dissANT,2023.2.3,60.08687382998984,2024-12-05 18h01.30.726646 -0600,
upper.png,incongLeft.png,left,0,,,,,1,0,1,0,1,12,60,16,415.1031304001808,,,,,,,,,,415.09095889981836,415.1031304001808,415.50317599996924,415.4886710001156,0.4,415.4887500004843,415.50317599996924,415.50317599996924,415.60284390021116,416.0035321004689,416.0035321004689,416.0035321004689,416.64088540058583,left,1,0.6337313000112772,None,,,,,,,,,,,,,,,,,,,,,,,,,,,,,,,,,,,,Eclipse,1,24,Female,Hispanic/Latino,,2024-12-05_17h53.38.972,dissANT,2023.2.3,60.08687382998984,2024-12-05 18h01.30.726646 -0600,
centre.png,congRight.png,left,180,,,,,1,0,1,0,1,13,61,14,416.65338660031557,,,,,,,,,,416.6421886002645,416.65338660031557,417.0532204005867,417.0393328005448,0.4,417.0394133999944,417.0532204005867,417.0532204005867,417.15322060044855,417.55272960010916,417.55272960010916,417.55272960010916,418.3219364006072,left,1,0.7662984002381563,None,,,,,,,,,,,,,,,,,,,,,,,,,,,,,,,,,,,,Eclipse,1,24,Female,Hispanic/Latino,,2024-12-05_17h53.38.972,dissANT,2023.2.3,60.08687382998984,2024-12-05 18h01.30.726646 -0600,
centre.png,congRight.png,right,0,,,,,1,0,1,0,1,14,62,10,418.33652270026505,,,,,,,,,,418.3232856001705,418.33652270026505,418.88642550073564,418.87091970071197,0.55,418.87098360061646,418.88642550073564,418.88642550073564,418.98680040054023,419.386571300216,419.386571300216,419.386571300216,419.90557250007987,right,1,0.5136322993785143,None,,,,,,,,,,,,,,,,,,,,,,,,,,,,,,,,,,,,Eclipse,1,24,Female,Hispanic/Latino,,2024-12-05_17h53.38.972,dissANT,2023.2.3,60.08687382998984,2024-12-05 18h01.30.726646 -0600,
upper.png,neutralLeft.png,left,0,,,,,1,0,1,0,1,15,63,32,419.9197901999578,,,,,,,,,,419.9069332005456,419.9197901999578,420.3699119007215,420.35485049989074,0.45,420.3549076002091,420.3699119007215,420.3699119007215,420.4699972998351,420.8695421004668,420.8695421004668,420.8695421004668,421.38883710000664,left,1,0.5135210994631052,None,,,,,,,,,,,,,,,,,,,,,,,,,,,,,,,,,,,,Eclipse,1,24,Female,Hispanic/Latino,,2024-12-05_17h53.38.972,dissANT,2023.2.3,60.08687382998984,2024-12-05 18h01.30.726646 -0600,
centre.png,neutralRight.png,right,0,,,,,1,0,1,0,1,16,64,42,421.4031247003004,,,,,,,,,,421.3902519000694,421.4031247003004,421.85316110029817,421.83888030052185,0.45,421.838952800259,421.85316110029817,421.85316110029817,421.9532360006124,422.35340919997543,422.35340919997543,422.35340919997543,422.8389260005206,right,1,0.4746401999145746,None,,,,,,,,,,,,,,,,,,,,,,,,,,,,,,,,,,,,Eclipse,1,24,Female,Hispanic/Latino,,2024-12-05_17h53.38.972,dissANT,2023.2.3,60.08687382998984,2024-12-05 18h01.30.726646 -0600,
blank.png,congRight.png,right,0,,,,,1,0,1,0,1,17,65,11,422.85299600008875,,,,,,,,,,422.8405448002741,422.85299600008875,423.30288070067763,423.28792029991746,0.45,423.2879776004702,423.30288070067763,423.30288070067763,423.40305180009454,423.80327230039984,423.80327230039984,423.80327230039984,424.95463240053505,right,1,1.1398820001631975,None,,,,,,,,,,,,,,,,,,,,,,,,,,,,,,,,,,,,Eclipse,1,24,Female,Hispanic/Latino,,2024-12-05_17h53.38.972,dissANT,2023.2.3,60.08687382998984,2024-12-05 18h01.30.726646 -0600,
both.png,congLeft.png,right,180,,,,,1,0,1,0,1,18,66,5,424.969297000207,,,,,,,,,,424.95585730019957,424.969297000207,425.4195650005713,425.4047858007252,0.45,425.4048448000103,425.4195650005713,425.4195650005713,425.5195709001273,425.91966590005904,425.91966590005904,425.91966590005904,426.48706280067563,right,1,0.5572577994316816,None,,,,,,,,,,,,,,,,,,,,,,,,,,,,,,,,,,,,Eclipse,1,24,Female,Hispanic/Latino,,2024-12-05_17h53.38.972,dissANT,2023.2.3,60.08687382998984,2024-12-05 18h01.30.726646 -0600,
blank.png,neutralLeft.png,left,0,,,,,1,0,1,0,1,19,67,35,426.50260390061885,,,,,,,,,,426.4878626000136,426.50260390061885,426.9030130999163,426.8881139000878,0.4,426.88817230053246,426.9030130999163,426.9030130999163,427.00313550047576,427.4032062003389,427.4032062003389,427.4032062003389,427.97223180066794,left,1,0.5634261006489396,None,,,,,,,,,,,,,,,,,,,,,,,,,,,,,,,,,,,,Eclipse,1,24,Female,Hispanic/Latino,,2024-12-05_17h53.38.972,dissANT,2023.2.3,60.08687382998984,2024-12-05 18h01.30.726646 -0600,
upper.png,congLeft.png,left,0,,,,,1,0,1,0,1,20,68,0,427.9859072007239,,,,,,,,,,427.97363639995456,427.9859072007239,428.3861793000251,428.37114530056715,0.4,428.3712104000151,428.3861793000251,428.3861793000251,428.4863122999668,428.88607200048864,428.88607200048864,428.88607200048864,429.4722396004945,left,1,0.5805326998233795,None,,,,,,,,,,,,,,,,,,,,,,,,,,,,,,,,,,,,Eclipse,1,24,Female,Hispanic/Latino,,2024-12-05_17h53.38.972,dissANT,2023.2.3,60.08687382998984,2024-12-05 18h01.30.726646 -0600,
blank.png,neutralRight.png,left,180,,,,,1,0,1,0,1,21,69,47,429.48607960063964,,,,,,,,,,429.47375210002065,429.48607960063964,429.88622040022165,429.8712504003197,0.4,429.8713326007128,429.88622040022165,429.88622040022165,429.9863552004099,430.3863506000489,430.3863506000489,430.3863506000489,430.90583810023963,left,1,0.5057723000645638,None,,,,,,,,,,,,,,,,,,,,,,,,,,,,,,,,,,,,Eclipse,1,24,Female,Hispanic/Latino,,2024-12-05_17h53.38.972,dissANT,2023.2.3,60.08687382998984,2024-12-05 18h01.30.726646 -0600,
