cue,tar,corrAns,targOrientation,pracLoop.thisRepN,pracLoop.thisTrialN,pracLoop.thisN,pracLoop.thisIndex,blockLoop.thisRepN,blockLoop.thisTrialN,blockLoop.thisN,blockLoop.thisIndex,mainLoop.thisRepN,mainLoop.thisTrialN,mainLoop.thisN,mainLoop.thisIndex,thisRow.t,notes,PracInstruc.started,pracText1.started,pracResp1.started,PracInstruc.stopped,PracInstruct2.started,practInst2.started,practResp2.started,PracInstruct2.stopped,fixation.started,image.started,image.stopped,fixation.stopped,fixFuration,trial.started,cues.started,fixationshort.started,cues.stopped,target.started,resp.started,fixationshort.stopped,target.stopped,resp.stopped,trial.stopped,resp.keys,resp.corr,feedback.started,text.started,text.stopped,feedback.stopped,resp.rt,resp.duration,MainInstruc.started,mainInst.started,instResp.started,MainInstruc.stopped,instResp.keys,instResp.rt,instResp.duration,Rest.started,rest.started,restResp.started,Rest.stopped,MentalFatigue.started,FatigueQ.started,textbox.started,FatigueEnd.started,EndClick.started,MentalFatigue.stopped,textbox.text,EndClick.x,EndClick.y,EndClick.leftButton,EndClick.midButton,EndClick.rightButton,EndClick.time,EndClick.clicked_name,End.started,endText.started,endKey.started,End.stopped,participant,week,age,gender,race/ethnicity,cognitive health history,date,expName,psychopyVersion,frameRate,expStart,
centre.png,incongLeft.png,right,180,0,0,0,22,,,,,,,,,60.27350530028343,,0.0015067998319864273,0.0035260003060102463,0.0035260003060102463,19.63694589957595,19.637001999653876,19.666592399589717,19.666592399589717,60.25102759990841,60.26240830030292,60.27350530028343,60.83305259980261,60.81696499977261,0.55,60.81700779963285,60.83305259980261,60.83305259980261,60.93332519941032,61.31674699950963,61.31674699950963,61.33318590000272,63.02235080022365,63.02235080022365,63.001491099596024,None,0,63.0025899996981,63.02235080022365,64.03283900022507,64.01792680006474,,,,,,,,,,,,,,,,,,,,,,,,,,,,,,,,marigold,1,19,Female,Other,fairly normal,2024-12-04_15h12.46.341,dissANT,2023.2.3,59.94441939026222,2024-12-04 15h19.26.315080 -0600,
blank.png,incongLeft.png,right,180,0,1,1,23,,,,,,,,,64.03283900022507,,,,,,,,,,64.01861619949341,64.03283900022507,64.4349171994254,64.41836149990559,0.4,64.41843029949814,64.4349171994254,64.4349171994254,64.54967989958823,64.93359769973904,64.93359769973904,64.94985709991306,66.63303299993277,66.63303299993277,66.61776539962739,None,0,66.61853859946132,66.63303299993277,67.63280630018562,67.61799459997565,,,,,,,,,,,,,,,,,,,,,,,,,,,,,,,,marigold,1,19,Female,Other,fairly normal,2024-12-04_15h12.46.341,dissANT,2023.2.3,59.94441939026222,2024-12-04 15h19.26.315080 -0600,
lower.png,congRight.png,left,180,0,2,2,12,,,,,,,,,67.63280630018562,,,,,,,,,,67.61910829972476,67.63280630018562,68.08279350027442,68.06814739946276,0.45,68.06821809988469,68.08279350027442,68.08279350027442,68.18273209966719,68.58283099997789,68.58283099997789,68.58283099997789,,,69.91736000031233,left,1,69.91819970030338,69.94169969949871,,70.93331739958376,1.3204904003068805,None,,,,,,,,,,,,,,,,,,,,,,,,,,,,,,marigold,1,19,Female,Other,fairly normal,2024-12-04_15h12.46.341,dissANT,2023.2.3,59.94441939026222,2024-12-04 15h19.26.315080 -0600,
upper.png,congLeft.png,left,0,0,3,3,0,,,,,,,,,70.94944890029728,,,,,,,,,,70.93430439941585,70.94944890029728,71.44960839953274,71.43461619969457,0.5,71.43467890005559,71.44960839953274,71.44960839953274,71.54985729977489,71.94970749970526,71.94970749970526,71.94970749970526,,,72.5525500997901,left,1,72.55362769961357,72.56820289976895,,73.56682679988444,0.594743900001049,None,,,,,,,,,,,,,,,,,,,,,,,,,,,,,,marigold,1,19,Female,Other,fairly normal,2024-12-04_15h12.46.341,dissANT,2023.2.3,59.94441939026222,2024-12-04 15h19.26.315080 -0600,
both.png,congRight.png,left,180,0,4,4,13,,,,,,,,,73.5826902994886,,,,,,,,,,73.56804030016065,73.5826902994886,74.08283059950918,74.068134999834,0.5,74.06817909982055,74.08283059950918,74.08283059950918,74.18292300030589,74.58307289984077,74.58307289984077,74.58307289984077,,,75.20202159974724,left,1,75.20314599946141,75.21737379953265,,76.21666999999434,0.6116239996626973,None,,,,,,,,,,,,,,,,,,,,,,,,,,,,,,marigold,1,19,Female,Other,fairly normal,2024-12-04_15h12.46.341,dissANT,2023.2.3,59.94441939026222,2024-12-04 15h19.26.315080 -0600,
both.png,congLeft.png,right,180,0,5,5,5,,,,,,,,,76.23285499960184,,,,,,,,,,76.21802179981023,76.23285499960184,76.78280619997531,76.76775710005313,0.55,76.76782729942352,76.78280619997531,76.78280619997531,76.8827790999785,77.28288619965315,77.28288619965315,77.28288619965315,,,77.93502689991146,right,1,77.9359467998147,77.94897080026567,78.94952569995075,78.93482750002295,0.6447957996279001,None,,,,,,,,,,,,,,,,,,,,,,,,,,,,,,marigold,1,19,Female,Other,fairly normal,2024-12-04_15h12.46.341,dissANT,2023.2.3,59.94441939026222,2024-12-04 15h19.26.315080 -0600,
blank.png,congRight.png,left,180,0,6,6,15,,,,,,,,,78.94952569995075,,,,,,,,,,78.9358983002603,78.94952569995075,79.3494585994631,79.3346191002056,0.4,79.33467729948461,79.3494585994631,79.3494585994631,79.44963049981743,79.84964600019157,79.84964600019157,79.84964600019157,,,80.41992240026593,left,1,80.42111479956657,80.4356551002711,,81.43303269986063,0.5654303999617696,None,,,,,,,,,,,,,,,,,,,,,,,,,,,,,,marigold,1,19,Female,Other,fairly normal,2024-12-04_15h12.46.341,dissANT,2023.2.3,59.94441939026222,2024-12-04 15h19.26.315080 -0600,
upper.png,congRight.png,right,0,0,7,7,8,,,,,,,,,81.45030889939517,,,,,,,,,,81.43396539986134,81.45030889939517,81.9993155002594,81.98439319990575,0.55,81.98445410002023,81.9993155002594,81.9993155002594,82.09930409956723,82.4993226993829,82.4993226993829,82.4993226993829,,,82.95193680003285,right,1,82.95279330015182,82.96565769985318,83.96612839959562,83.95146489981562,0.449651800096035,None,,,,,,,,,,,,,,,,,,,,,,,,,,,,,,marigold,1,19,Female,Other,fairly normal,2024-12-04_15h12.46.341,dissANT,2023.2.3,59.94441939026222,2024-12-04 15h19.26.315080 -0600,
blank.png,congLeft.png,right,180,0,8,8,7,,,,,,,,,83.96612839959562,,,,,,,,,,83.95248979981989,83.96612839959562,84.71044909954071,84.4492605002597,0.5,84.44927089940757,84.71044909954071,84.71044909954071,84.81493099965155,84.94865449983627,84.94865449983627,85.21532049961388,,,85.53533979970962,right,1,85.53622359968722,85.54879090003669,86.54894419945776,86.53232910018414,0.5814876006916165,None,,,,,,,,,,,,,,,,,,,,,,,,,,,,,,marigold,1,19,Female,Other,fairly normal,2024-12-04_15h12.46.341,dissANT,2023.2.3,59.94441939026222,2024-12-04 15h19.26.315080 -0600,
both.png,congRight.png,right,0,0,9,9,9,,,,,,,,,86.54894419945776,,,,,,,,,,86.53250159975141,86.54894419945776,87.04911660030484,87.03308250010014,0.5,87.03312269970775,87.04911660030484,87.04911660030484,87.1492945002392,87.53266509994864,87.53266509994864,87.54942269995809,,,88.21752330008894,right,1,88.21830159984529,88.23231439944357,89.23250070028007,89.21798209939152,0.682277500629425,None,,,,,,,,,,,,,,,,,,,,,,,,,,,,,,marigold,1,19,Female,Other,fairly normal,2024-12-04_15h12.46.341,dissANT,2023.2.3,59.94441939026222,2024-12-04 15h19.26.315080 -0600,
both.png,incongLeft.png,left,0,0,10,10,17,,,,,,,,,89.23250070028007,,,,,,,,,,89.21905079949647,89.23250070028007,89.78244030009955,89.76841939985752,0.55,89.76849219948053,89.78244030009955,89.78244030009955,89.88244809955359,90.28249579947442,90.28249579947442,90.28249579947442,,,91.31812969967723,left,1,91.31912249978632,91.33200709987432,92.33253949973732,92.31742059998214,1.0198988001793623,None,,,,,,,,,,,,,,,,,,,,,,,,,,,,,,marigold,1,19,Female,Other,fairly normal,2024-12-04_15h12.46.341,dissANT,2023.2.3,59.94441939026222,2024-12-04 15h19.26.315080 -0600,
centre.png,congLeft.png,right,180,0,11,11,6,,,,,,,,,92.33253949973732,,,,,,,,,,92.31832120008767,92.33253949973732,92.73186499997973,92.71627500001341,0.4,92.71631389949471,92.73186499997973,92.73186499997973,92.83180280029774,93.21564409974962,93.21564409974962,93.23213199991733,,,93.88228040002286,right,1,93.88247890025377,93.89851680025458,94.89867660030723,94.88235570024699,0.6547668995335698,None,,,,,,,,,,,,,,,,,,,,,,,,,,,,,,marigold,1,19,Female,Other,fairly normal,2024-12-04_15h12.46.341,dissANT,2023.2.3,59.94441939026222,2024-12-04 15h19.26.315080 -0600,
lower.png,incongLeft.png,right,180,0,12,12,20,,,,,,,,,94.89867660030723,,,,,,,,,,94.8826871002093,94.89867660030723,95.3489044001326,95.33471089974046,0.45,95.33478480018675,95.3489044001326,95.3489044001326,95.44910239987075,95.84916120022535,95.84916120022535,95.84916120022535,97.54888259992003,97.54888259992003,97.53452270012349,None,0,97.53545259963721,97.54888259992003,98.54908940009773,98.5341395996511,,,,,,,,,,,,,,,,,,,,,,,,,,,,,,,,marigold,1,19,Female,Other,fairly normal,2024-12-04_15h12.46.341,dissANT,2023.2.3,59.94441939026222,2024-12-04 15h19.26.315080 -0600,
upper.png,incongLeft.png,left,0,0,13,13,16,,,,,,,,,98.54908940009773,,,,,,,,,,98.53529400005937,98.54908940009773,98.94894939940423,98.93357929959893,0.4,98.93363980017602,98.94894939940423,98.94894939940423,99.04925450030714,99.44932710006833,99.44932710006833,99.44932710006833,,,100.46807429939508,left,1,100.46907989960164,100.48180439975113,101.4822041997686,101.46691560000181,1.0131227001547813,None,,,,,,,,,,,,,,,,,,,,,,,,,,,,,,marigold,1,19,Female,Other,fairly normal,2024-12-04_15h12.46.341,dissANT,2023.2.3,59.94441939026222,2024-12-04 15h19.26.315080 -0600,
centre.png,congRight.png,left,180,0,14,14,14,,,,,,,,,101.4822041997686,,,,,,,,,,101.46746669989079,101.4822041997686,102.03194139990956,102.0168418996036,0.55,102.01689749956131,102.03194139990956,102.03194139990956,102.13172619976103,102.53227110020816,102.53227110020816,102.53227110020816,,,103.21827589999884,left,1,103.21925709955394,103.2317933999002,104.23224440030754,104.21713580004871,0.6832443997263908,None,,,,,,,,,,,,,,,,,,,,,,,,,,,,,,marigold,1,19,Female,Other,fairly normal,2024-12-04_15h12.46.341,dissANT,2023.2.3,59.94441939026222,2024-12-04 15h19.26.315080 -0600,
centre.png,congLeft.png,left,0,0,15,15,2,,,,,,,,,104.23224440030754,,,,,,,,,,104.21825709939003,104.23224440030754,104.73206650000066,104.71807669941336,0.5,104.71815839968622,104.73206650000066,104.73206650000066,104.8316121995449,105.23238489963114,105.23238489963114,105.23238489963114,,,105.78309429995716,left,1,105.78344430029392,105.79853579960763,106.79850280005485,106.78428510017693,0.5412632999941707,None,,,,,,,,,,,,,,,,,,,,,,,,,,,,,,marigold,1,19,Female,Other,fairly normal,2024-12-04_15h12.46.341,dissANT,2023.2.3,59.94441939026222,2024-12-04 15h19.26.315080 -0600,
centre.png,incongLeft.png,left,0,0,16,16,18,,,,,,,,,106.79850280005485,,,,,,,,,,106.78517960011959,106.79850280005485,107.1985718999058,107.18419860024005,0.4,107.18427569977939,107.1985718999058,107.1985718999058,107.29884869977832,107.69883750006557,107.69883750006557,107.69883750006557,,,108.50215089973062,left,1,108.50334449950606,108.51516439951956,109.51551789976656,109.50023679994047,0.7878895001485944,None,,,,,,,,,,,,,,,,,,,,,,,,,,,,,,marigold,1,19,Female,Other,fairly normal,2024-12-04_15h12.46.341,dissANT,2023.2.3,59.94441939026222,2024-12-04 15h19.26.315080 -0600,
blank.png,congRight.png,right,0,0,17,17,11,,,,,,,,,109.51551789976656,,,,,,,,,,109.50113920029253,109.51551789976656,109.965331800282,109.95055459998548,0.45,109.9506203001365,109.965331800282,109.965331800282,110.06565419957042,110.4656339995563,110.4656339995563,110.4656339995563,,,111.11854529939592,right,1,111.11978510022163,111.13179809972644,112.13203420024365,112.11651759967208,0.637071399949491,None,,,,,,,,,,,,,,,,,,,,,,,,,,,,,,marigold,1,19,Female,Other,fairly normal,2024-12-04_15h12.46.341,dissANT,2023.2.3,59.94441939026222,2024-12-04 15h19.26.315080 -0600,
blank.png,congLeft.png,left,0,0,18,18,3,,,,,,,,,112.13203420024365,,,,,,,,,,112.11730069946498,112.13203420024365,112.58174380008131,112.56748280022293,0.45,112.56755539961159,112.58174380008131,112.58174380008131,112.68183080013841,113.08198019955307,113.08198019955307,113.08198019955307,,,113.75072610005736,left,1,113.75149070005864,113.76485980022699,114.76530050020665,114.7500994997099,0.6574470000341535,None,,,,,,,,,,,,,,,,,,,,,,,,,,,,,,marigold,1,19,Female,Other,fairly normal,2024-12-04_15h12.46.341,dissANT,2023.2.3,59.94441939026222,2024-12-04 15h19.26.315080 -0600,
lower.png,congLeft.png,right,180,0,19,19,4,,,,,,,,,114.76530050020665,,,,,,,,,,114.75112309958786,114.76530050020665,115.26511889975518,115.25028629973531,0.5,115.25034500006586,115.26511889975518,115.26511889975518,115.36536729987711,115.76486179977655,115.76486179977655,115.76486179977655,,,116.29870880022645,right,1,116.29908380005509,116.31466259993613,117.3161642998457,117.29901979956776,0.5283984998241067,None,,,,,,,,,,,,,,,,,,,,,,,,,,,,,,marigold,1,19,Female,Other,fairly normal,2024-12-04_15h12.46.341,dissANT,2023.2.3,59.94441939026222,2024-12-04 15h19.26.315080 -0600,
both.png,incongLeft.png,right,180,0,20,20,21,,,,,,,,,117.3161642998457,,,,,,,,,,117.29965069983155,117.3161642998457,117.83188429940492,117.81612470000982,0.5,117.81615449953824,117.83188429940492,117.83188429940492,117.93147149961442,118.31542850006372,118.31542850006372,118.33134169969708,,,118.7508691996336,left,0,118.7517809998244,118.76453220006078,119.76528690010309,119.75050659943372,0.43062319979071617,None,,,,,,,,,,,,,,,,,,,,,,,,,,,,,,marigold,1,19,Female,Other,fairly normal,2024-12-04_15h12.46.341,dissANT,2023.2.3,59.94441939026222,2024-12-04 15h19.26.315080 -0600,
centre.png,congRight.png,right,0,0,21,21,10,,,,,,,,,119.76528690010309,,,,,,,,,,119.75160439964384,119.76528690010309,120.16513760015368,120.15011049993336,0.4,120.15017499960959,120.16513760015368,120.16513760015368,120.26539499964565,120.66526400018483,120.66526400018483,120.66526400018483,,,121.28462999965996,right,1,121.28588309977204,121.29793090000749,122.2984211994335,122.28288790024817,0.6150702005252242,None,,,,,,,,,,,,,,,,,,,,,,,,,,,,,,marigold,1,19,Female,Other,fairly normal,2024-12-04_15h12.46.341,dissANT,2023.2.3,59.94441939026222,2024-12-04 15h19.26.315080 -0600,
both.png,congLeft.png,left,0,0,22,22,1,,,,,,,,,122.2984211994335,,,,,,,,,,122.28387110028416,122.2984211994335,122.7484877994284,122.73266579955816,0.45,122.73271579947323,122.7484877994284,122.7484877994284,122.84853189997375,123.24830039963126,123.24830039963126,123.24830039963126,,,123.78458349965513,left,1,123.78574309963733,123.79814579989761,124.7983158994466,124.78354380000383,0.5237902998924255,None,,,,,,,,,,,,,,,,,,,,,,,,,,,,,,marigold,1,19,Female,Other,fairly normal,2024-12-04_15h12.46.341,dissANT,2023.2.3,59.94441939026222,2024-12-04 15h19.26.315080 -0600,
blank.png,incongLeft.png,left,0,0,23,23,19,,,,,,,,,124.7983158994466,,,,,,,,,,124.78456319961697,124.7983158994466,125.24832119978964,125.23331100028008,0.45,125.23336690012366,125.24832119978964,125.24832119978964,125.34804979991168,125.7486143996939,125.7486143996939,125.7486143996939,,,126.548538999632,left,1,126.54873519949615,126.56428029946983,127.56499959994107,127.55029550008476,0.7889867993071675,None,,,,,,,,,,,,,,,,,,,,,,,,,,,,,,marigold,1,19,Female,Other,fairly normal,2024-12-04_15h12.46.341,dissANT,2023.2.3,59.94441939026222,2024-12-04 15h19.26.315080 -0600,
,,,,,,,,,,,,,,,,,,,,,,,,,,,,,,,,,,,,,,,,,,,,,,,,,127.55050290003419,127.56499959994107,127.56499959994107,134.83420769963413,space,7.253436200320721,None,,,,,,,,,,,,,,,,,,,,,,,marigold,1,19,Female,Other,fairly normal,2024-12-04_15h12.46.341,dissANT,2023.2.3,59.94441939026222,2024-12-04 15h19.26.315080 -0600,
both.png,neutralRight.png,right,0,,,,,0,0,0,0,0,0,0,41,134.8550086002797,,,,,,,,,,134.8529476998374,134.8550086002797,135.26438950002193,135.25005370005965,0.4,135.2501550996676,135.26438950002193,135.26438950002193,135.36443889979273,135.76502020005137,135.76502020005137,135.76502020005137,,,136.75047650001943,right,1,,,,,0.9782444005832076,None,,,,,,,,,,,,,,,,,,,,,,,,,,,,,,marigold,1,19,Female,Other,fairly normal,2024-12-04_15h12.46.341,dissANT,2023.2.3,59.94441939026222,2024-12-04 15h19.26.315080 -0600,
both.png,incongRight.png,left,180,,,,,0,0,0,0,0,1,1,29,136.7645886996761,,,,,,,,,,136.75258640013635,136.7645886996761,137.3146006995812,137.29962139949203,0.55,137.29969169944525,137.3146006995812,137.3146006995812,137.4147311002016,137.81477359961718,137.81477359961718,137.81477359961718,,,138.75156959984452,left,1,,,,,0.9328261008486152,None,,,,,,,,,,,,,,,,,,,,,,,,,,,,,,marigold,1,19,Female,Other,fairly normal,2024-12-04_15h12.46.341,dissANT,2023.2.3,59.94441939026222,2024-12-04 15h19.26.315080 -0600,
both.png,neutralLeft.png,left,0,,,,,0,0,0,0,0,2,2,33,138.7641917001456,,,,,,,,,,138.75327059999108,138.7641917001456,139.31477080006152,139.2996103996411,0.55,139.2996713994071,139.31477080006152,139.31477080006152,139.41462719999254,139.81464019976556,139.81464019976556,139.81464019976556,,,140.43331579957157,left,1,,,,,0.6142923999577761,None,,,,,,,,,,,,,,,,,,,,,,,,,,,,,,marigold,1,19,Female,Other,fairly normal,2024-12-04_15h12.46.341,dissANT,2023.2.3,59.94441939026222,2024-12-04 15h19.26.315080 -0600,
blank.png,congLeft.png,right,180,,,,,0,0,0,0,0,3,3,7,140.4478088002652,,,,,,,,,,140.43456420022994,140.4478088002652,140.94793740008026,140.93285479955375,0.5,140.932920999825,140.94793740008026,140.94793740008026,141.0479568000883,141.44834689982235,141.44834689982235,141.44834689982235,,,142.01725869998336,right,1,,,,,0.5627908995375037,None,,,,,,,,,,,,,,,,,,,,,,,,,,,,,,marigold,1,19,Female,Other,fairly normal,2024-12-04_15h12.46.341,dissANT,2023.2.3,59.94441939026222,2024-12-04 15h19.26.315080 -0600,
centre.png,congRight.png,left,180,,,,,0,0,0,0,0,4,4,14,142.0311773000285,,,,,,,,,,142.01872499939054,142.0311773000285,142.48114299960434,142.46640649996698,0.45,142.46647270023823,142.48114299960434,142.48114299960434,142.5812978995964,142.98126040026546,142.98126040026546,142.98126040026546,,,143.6001447001472,left,1,,,,,0.6051008002832532,None,,,,,,,,,,,,,,,,,,,,,,,,,,,,,,marigold,1,19,Female,Other,fairly normal,2024-12-04_15h12.46.341,dissANT,2023.2.3,59.94441939026222,2024-12-04 15h19.26.315080 -0600,
blank.png,neutralLeft.png,left,0,,,,,0,0,0,0,0,5,5,35,143.61467829998583,,,,,,,,,,143.60163190029562,143.61467829998583,144.1144767999649,144.10009319987148,0.5,144.10017410013825,144.1144767999649,144.1144767999649,144.21466180030257,144.61476190015674,144.61476190015674,144.61476190015674,,,145.26802959945053,left,1,,,,,0.636909999884665,None,,,,,,,,,,,,,,,,,,,,,,,,,,,,,,marigold,1,19,Female,Other,fairly normal,2024-12-04_15h12.46.341,dissANT,2023.2.3,59.94441939026222,2024-12-04 15h19.26.315080 -0600,
upper.png,neutralLeft.png,left,0,,,,,0,0,0,0,0,6,6,32,145.2810749001801,,,,,,,,,,145.26966059952974,145.2810749001801,145.68112219963223,145.66650729998946,0.4,145.66657170001417,145.68112219963223,145.68112219963223,145.78072590008378,146.18107009958476,146.18107009958476,146.18107009958476,,,146.68442200031132,left,1,,,,,0.4883516002446413,None,,,,,,,,,,,,,,,,,,,,,,,,,,,,,,marigold,1,19,Female,Other,fairly normal,2024-12-04_15h12.46.341,dissANT,2023.2.3,59.94441939026222,2024-12-04 15h19.26.315080 -0600,
both.png,congLeft.png,left,0,,,,,0,0,0,0,0,7,7,1,146.69770410005003,,,,,,,,,,146.6858401997015,146.69770410005003,147.19774109963328,147.18333350028843,0.5,147.1834078002721,147.19774109963328,147.19774109963328,147.29778109956533,147.6980825001374,147.6980825001374,147.6980825001374,,,148.24973949976265,left,1,,,,,0.5366159006953239,None,,,,,,,,,,,,,,,,,,,,,,,,,,,,,,marigold,1,19,Female,Other,fairly normal,2024-12-04_15h12.46.341,dissANT,2023.2.3,59.94441939026222,2024-12-04 15h19.26.315080 -0600,
blank.png,neutralRight.png,right,0,,,,,0,0,0,0,0,8,8,43,148.26454079989344,,,,,,,,,,148.2509874003008,148.26454079989344,148.66427429951727,148.64946229942143,0.4,148.64952269941568,148.66427429951727,148.66427429951727,148.76443840004504,149.16467459965497,149.16467459965497,149.16467459965497,,,149.73342349939048,right,1,,,,,0.5511859003454447,None,,,,,,,,,,,,,,,,,,,,,,,,,,,,,,marigold,1,19,Female,Other,fairly normal,2024-12-04_15h12.46.341,dissANT,2023.2.3,59.94441939026222,2024-12-04 15h19.26.315080 -0600,
blank.png,incongRight.png,right,0,,,,,0,0,0,0,0,9,9,27,149.747752700001,,,,,,,,,,149.73502429947257,149.747752700001,150.19754759967327,150.18349749967456,0.45,150.18356769997627,150.19754759967327,150.19754759967327,150.29768249951303,150.69779459945858,150.69779459945858,150.69779459945858,152.3977956995368,152.3977956995368,152.38295159954578,None,0,,,,,,,,,,,,,,,,,,,,,,,,,,,,,,,,,,,,marigold,1,19,Female,Other,fairly normal,2024-12-04_15h12.46.341,dissANT,2023.2.3,59.94441939026222,2024-12-04 15h19.26.315080 -0600,
centre.png,congLeft.png,left,0,,,,,0,0,0,0,0,10,10,2,152.3977956995368,,,,,,,,,,152.38454909995198,152.3977956995368,152.89765769988298,152.88264109939337,0.5,152.88269959948957,152.89765769988298,152.89765769988298,152.9977142000571,153.39786439947784,153.39786439947784,153.39786439947784,,,154.18289120029658,left,1,,,,,0.7748146997764707,None,,,,,,,,,,,,,,,,,,,,,,,,,,,,,,marigold,1,19,Female,Other,fairly normal,2024-12-04_15h12.46.341,dissANT,2023.2.3,59.94441939026222,2024-12-04 15h19.26.315080 -0600,
blank.png,congRight.png,left,180,,,,,0,0,0,0,0,11,11,15,154.19759599957615,,,,,,,,,,154.18439370021224,154.19759599957615,154.6472737994045,154.6324969995767,0.45,154.63255899958313,154.6472737994045,154.6472737994045,154.74765799939632,155.1476101996377,155.1476101996377,155.1476101996377,,,155.70002300012857,left,1,,,,,0.5469654994085431,None,,,,,,,,,,,,,,,,,,,,,,,,,,,,,,marigold,1,19,Female,Other,fairly normal,2024-12-04_15h12.46.341,dissANT,2023.2.3,59.94441939026222,2024-12-04 15h19.26.315080 -0600,
centre.png,incongLeft.png,right,180,,,,,0,0,0,0,0,12,12,22,155.71450760029256,,,,,,,,,,155.70142449997365,155.71450760029256,156.26427929941565,156.24872319959104,0.55,156.24878119956702,156.26427929941565,156.26427929941565,156.36437589954585,156.76447070017457,156.76447070017457,156.76447070017457,,,157.76859330013394,right,1,,,,,1.0003603994846344,None,,,,,,,,,,,,,,,,,,,,,,,,,,,,,,marigold,1,19,Female,Other,fairly normal,2024-12-04_15h12.46.341,dissANT,2023.2.3,59.94441939026222,2024-12-04 15h19.26.315080 -0600,
centre.png,congLeft.png,right,180,,,,,0,0,0,0,0,13,13,6,157.78077770024538,,,,,,,,,,157.77049749996513,157.78077770024538,158.18074109964073,158.1667197998613,0.4,158.1668012002483,158.18074109964073,158.18074109964073,158.28071879968047,158.68083850014955,158.68083850014955,158.68083850014955,,,159.20006479974836,right,1,,,,,0.5015642996877432,None,,,,,,,,,,,,,,,,,,,,,,,,,,,,,,marigold,1,19,Female,Other,fairly normal,2024-12-04_15h12.46.341,dissANT,2023.2.3,59.94441939026222,2024-12-04 15h19.26.315080 -0600,
centre.png,incongLeft.png,left,0,,,,,0,0,0,0,0,14,14,18,159.2140752999112,,,,,,,,,,159.2015538001433,159.2140752999112,159.71390370000154,159.69947179965675,0.5,159.6995434993878,159.71390370000154,159.71390370000154,159.81377589982003,160.21430629957467,160.21430629957467,160.21430629957467,,,161.08314889948815,left,1,,,,,0.8648724993690848,None,,,,,,,,,,,,,,,,,,,,,,,,,,,,,,marigold,1,19,Female,Other,fairly normal,2024-12-04_15h12.46.341,dissANT,2023.2.3,59.94441939026222,2024-12-04 15h19.26.315080 -0600,
upper.png,neutralRight.png,right,0,,,,,0,0,0,0,0,15,15,40,161.0974711999297,,,,,,,,,,161.0845702001825,161.0974711999297,161.49773880001158,161.48255429975688,0.4,161.48261259961873,161.49773880001158,161.49773880001158,161.59767979942262,161.99770320020616,161.99770320020616,161.99770320020616,,,162.600884700194,right,1,,,,,0.594828300178051,None,,,,,,,,,,,,,,,,,,,,,,,,,,,,,,marigold,1,19,Female,Other,fairly normal,2024-12-04_15h12.46.341,dissANT,2023.2.3,59.94441939026222,2024-12-04 15h19.26.315080 -0600,
centre.png,neutralRight.png,left,180,,,,,0,0,0,0,0,16,16,46,162.61419379990548,,,,,,,,,,162.60272199939936,162.61419379990548,163.11404629983008,163.09971489943564,0.5,163.09978769998997,163.11404629983008,163.11404629983008,163.21398179978132,163.61421110015363,163.61421110015363,163.61421110015363,,,164.14972359966487,left,1,,,,,0.5206573996692896,None,,,,,,,,,,,,,,,,,,,,,,,,,,,,,,marigold,1,19,Female,Other,fairly normal,2024-12-04_15h12.46.341,dissANT,2023.2.3,59.94441939026222,2024-12-04 15h19.26.315080 -0600,
both.png,congRight.png,left,180,,,,,0,0,0,0,0,17,17,13,164.16562919970602,,,,,,,,,,164.1512740002945,164.16562919970602,164.58012960013002,164.56474599987268,0.4,164.56478520017117,164.58012960013002,164.58012960013002,164.6807480994612,165.06409200001508,165.06409200001508,165.08070759940892,,,165.5838076993823,left,1,,,,,0.5058949002996087,None,,,,,,,,,,,,,,,,,,,,,,,,,,,,,,marigold,1,19,Female,Other,fairly normal,2024-12-04_15h12.46.341,dissANT,2023.2.3,59.94441939026222,2024-12-04 15h19.26.315080 -0600,
upper.png,congRight.png,right,0,,,,,0,0,0,0,0,18,18,8,165.59770440030843,,,,,,,,,,165.58535679988563,165.59770440030843,165.99727279972285,165.98282280005515,0.4,165.98289330024272,165.99727279972285,165.99727279972285,166.0968150002882,166.49703199975193,166.49703199975193,166.49703199975193,,,167.00031610019505,right,1,,,,,0.4855754002928734,None,,,,,,,,,,,,,,,,,,,,,,,,,,,,,,marigold,1,19,Female,Other,fairly normal,2024-12-04_15h12.46.341,dissANT,2023.2.3,59.94441939026222,2024-12-04 15h19.26.315080 -0600,
lower.png,incongLeft.png,right,180,,,,,0,0,0,0,0,19,19,20,167.01408089976758,,,,,,,,,,167.00224129948765,167.01408089976758,167.5139146000147,167.4989423993975,0.5,167.49900079984218,167.5139146000147,167.5139146000147,167.61437749955803,168.01405060011894,168.01405060011894,168.01405060011894,,,169.26620890013874,right,1,,,,,1.241018700413406,None,,,,,,,,,,,,,,,,,,,,,,,,,,,,,,marigold,1,19,Female,Other,fairly normal,2024-12-04_15h12.46.341,dissANT,2023.2.3,59.94441939026222,2024-12-04 15h19.26.315080 -0600,
both.png,incongLeft.png,left,0,,,,,0,0,0,0,0,20,20,17,169.28067489992827,,,,,,,,,,169.267611999996,169.28067489992827,169.83051180001348,169.81436270009726,0.55,169.81439989991486,169.83051180001348,169.83051180001348,169.9306749003008,170.3140532001853,170.3140532001853,170.33014449942857,,,171.0006665000692,left,1,,,,,0.670745600014925,None,,,,,,,,,,,,,,,,,,,,,,,,,,,,,,marigold,1,19,Female,Other,fairly normal,2024-12-04_15h12.46.341,dissANT,2023.2.3,59.94441939026222,2024-12-04 15h19.26.315080 -0600,
centre.png,incongRight.png,left,180,,,,,0,0,0,0,0,21,21,30,171.01395459938794,,,,,,,,,,171.00249879993498,171.01395459938794,171.56382820010185,171.5493070995435,0.55,171.54937899950892,171.56382820010185,171.56382820010185,171.6643362995237,172.06411390006542,172.06411390006542,172.06411390006542,,,172.90088069997728,left,1,,,,,0.8325780993327498,None,,,,,,,,,,,,,,,,,,,,,,,,,,,,,,marigold,1,19,Female,Other,fairly normal,2024-12-04_15h12.46.341,dissANT,2023.2.3,59.94441939026222,2024-12-04 15h19.26.315080 -0600,
lower.png,neutralLeft.png,right,180,,,,,0,0,0,0,0,22,22,36,172.91369260009378,,,,,,,,,,172.90227680001408,172.91369260009378,173.31392109952867,173.29908910021186,0.4,173.2991541000083,173.31392109952867,173.31392109952867,173.4134018998593,173.81354749947786,173.81354749947786,173.81354749947786,,,174.41630280017853,right,1,,,,,0.5945808002725244,None,,,,,,,,,,,,,,,,,,,,,,,,,,,,,,marigold,1,19,Female,Other,fairly normal,2024-12-04_15h12.46.341,dissANT,2023.2.3,59.94441939026222,2024-12-04 15h19.26.315080 -0600,
lower.png,congRight.png,left,180,,,,,0,0,0,0,0,23,23,12,174.42997429985553,,,,,,,,,,174.41763139981776,174.42997429985553,174.88042849954218,174.86550919990987,0.45,174.86556719988585,174.88042849954218,174.88042849954218,174.98009929992259,175.38040000014007,175.38040000014007,175.38040000014007,,,176.11628729943186,left,1,,,,,0.7179239001125097,None,,,,,,,,,,,,,,,,,,,,,,,,,,,,,,marigold,1,19,Female,Other,fairly normal,2024-12-04_15h12.46.341,dissANT,2023.2.3,59.94441939026222,2024-12-04 15h19.26.315080 -0600,
both.png,congLeft.png,right,180,,,,,0,0,0,0,0,24,24,5,176.130543500185,,,,,,,,,,176.11774269957095,176.130543500185,176.58045679982752,176.56344870012254,0.45,176.56345919985324,176.58045679982752,176.58045679982752,176.68056560028344,177.06372960004956,177.06372960004956,177.08040060009807,,,177.49886950012296,right,1,,,,,0.4264214998111129,None,,,,,,,,,,,,,,,,,,,,,,,,,,,,,,marigold,1,19,Female,Other,fairly normal,2024-12-04_15h12.46.341,dissANT,2023.2.3,59.94441939026222,2024-12-04 15h19.26.315080 -0600,
lower.png,incongRight.png,left,180,,,,,0,0,0,0,0,25,25,28,177.5137411998585,,,,,,,,,,177.500296799466,177.5137411998585,177.96359500009567,177.9495091997087,0.45,177.94958449993283,177.96359500009567,177.96359500009567,178.06387579999864,178.46375450026244,178.46375450026244,178.46375450026244,,,179.20856769941747,left,1,,,,,0.7435713997110724,None,,,,,,,,,,,,,,,,,,,,,,,,,,,,,,marigold,1,19,Female,Other,fairly normal,2024-12-04_15h12.46.341,dissANT,2023.2.3,59.94441939026222,2024-12-04 15h19.26.315080 -0600,
blank.png,incongRight.png,left,180,,,,,0,0,0,0,0,26,26,31,179.21332930028439,,,,,,,,,,179.20903589949012,179.21332930028439,179.66349039971828,179.6493546999991,0.45,179.64942680019885,179.66349039971828,179.66349039971828,179.7637120001018,180.16382239945233,180.16382239945233,180.16382239945233,,,180.83169119991362,left,1,,,,,0.6547052003443241,None,,,,,,,,,,,,,,,,,,,,,,,,,,,,,,marigold,1,19,Female,Other,fairly normal,2024-12-04_15h12.46.341,dissANT,2023.2.3,59.94441939026222,2024-12-04 15h19.26.315080 -0600,
blank.png,congRight.png,right,0,,,,,0,0,0,0,0,27,27,11,180.84711069986224,,,,,,,,,,180.83292249962687,180.84711069986224,181.39706220012158,181.38203429989517,0.55,181.38209819979966,181.39706220012158,181.39706220012158,181.4971078997478,181.89692179951817,181.89692179951817,181.89692179951817,,,182.48321240022779,right,1,,,,,0.5778861995786428,None,,,,,,,,,,,,,,,,,,,,,,,,,,,,,,marigold,1,19,Female,Other,fairly normal,2024-12-04_15h12.46.341,dissANT,2023.2.3,59.94441939026222,2024-12-04 15h19.26.315080 -0600,
blank.png,neutralLeft.png,right,180,,,,,0,0,0,0,0,28,28,39,182.49694219976664,,,,,,,,,,182.4853047002107,182.49694219976664,182.94722689967602,182.9322394002229,0.45,182.93232529982924,182.94722689967602,182.94722689967602,183.0470513002947,183.44727700017393,183.44727700017393,183.44727700017393,,,184.31641289964318,right,1,,,,,0.8576804995536804,None,,,,,,,,,,,,,,,,,,,,,,,,,,,,,,marigold,1,19,Female,Other,fairly normal,2024-12-04_15h12.46.341,dissANT,2023.2.3,59.94441939026222,2024-12-04 15h19.26.315080 -0600,
both.png,incongRight.png,right,0,,,,,0,0,0,0,0,29,29,25,184.33025250025094,,,,,,,,,,184.3181679993868,184.33025250025094,184.83013219945133,184.81565129943192,0.5,184.81572190020233,184.83013219945133,184.83013219945133,184.9303548997268,185.33033899962902,185.33033899962902,185.33033899962902,,,186.36507380008698,right,1,,,,,1.0256187999621034,None,,,,,,,,,,,,,,,,,,,,,,,,,,,,,,marigold,1,19,Female,Other,fairly normal,2024-12-04_15h12.46.341,dissANT,2023.2.3,59.94441939026222,2024-12-04 15h19.26.315080 -0600,
blank.png,incongLeft.png,left,0,,,,,0,0,0,0,0,30,30,19,186.37954169977456,,,,,,,,,,186.36625889968127,186.37954169977456,186.88000429980457,186.8641404993832,0.5,186.86418120004237,186.88000429980457,186.88000429980457,186.97953969985247,187.3635545996949,187.3635545996949,187.3803353002295,,,188.16591349989176,left,1,,,,,0.7912914995104074,None,,,,,,,,,,,,,,,,,,,,,,,,,,,,,,marigold,1,19,Female,Other,fairly normal,2024-12-04_15h12.46.341,dissANT,2023.2.3,59.94441939026222,2024-12-04 15h19.26.315080 -0600,
both.png,incongLeft.png,right,180,,,,,0,0,0,0,0,31,31,21,188.1801998000592,,,,,,,,,,188.16746679972857,188.1801998000592,188.62992149963975,188.61451129987836,0.45,188.61455949954689,188.62992149963975,188.62992149963975,188.73007669951767,189.11370810028166,189.11370810028166,189.13033130019903,,,190.5336573999375,right,1,,,,,1.4165950994938612,None,,,,,,,,,,,,,,,,,,,,,,,,,,,,,,marigold,1,19,Female,Other,fairly normal,2024-12-04_15h12.46.341,dissANT,2023.2.3,59.94441939026222,2024-12-04 15h19.26.315080 -0600,
upper.png,incongLeft.png,left,0,,,,,0,0,0,0,0,32,32,16,190.547132499516,,,,,,,,,,190.53544020000845,190.547132499516,191.09690569993109,191.08233849983662,0.55,191.08240939956158,191.09690569993109,191.09690569993109,191.19688719976693,191.59632250014693,191.59632250014693,191.59632250014693,,,192.33096969965845,left,1,,,,,0.7202010992914438,None,,,,,,,,,,,,,,,,,,,,,,,,,,,,,,marigold,1,19,Female,Other,fairly normal,2024-12-04_15h12.46.341,dissANT,2023.2.3,59.94441939026222,2024-12-04 15h19.26.315080 -0600,
centre.png,congRight.png,right,0,,,,,0,0,0,0,0,33,33,10,192.3462070999667,,,,,,,,,,192.33218729961663,192.3462070999667,192.8967493996024,192.88040960021317,0.55,192.8804390002042,192.8967493996024,192.8967493996024,192.99696679972112,193.38026549946517,193.38026549946517,193.3966849995777,,,193.91522619966418,right,1,,,,,0.5329300006851554,None,,,,,,,,,,,,,,,,,,,,,,,,,,,,,,marigold,1,19,Female,Other,fairly normal,2024-12-04_15h12.46.341,dissANT,2023.2.3,59.94441939026222,2024-12-04 15h19.26.315080 -0600,
upper.png,incongRight.png,right,0,,,,,0,0,0,0,0,34,34,24,193.93012840021402,,,,,,,,,,193.91648729983717,193.93012840021402,194.4796593002975,194.46560689993203,0.55,194.465677799657,194.4796593002975,194.4796593002975,194.5799840996042,194.98019899986684,194.98019899986684,194.98019899986684,,,195.71574119944125,right,1,,,,,0.7269412996247411,None,,,,,,,,,,,,,,,,,,,,,,,,,,,,,,marigold,1,19,Female,Other,fairly normal,2024-12-04_15h12.46.341,dissANT,2023.2.3,59.94441939026222,2024-12-04 15h19.26.315080 -0600,
both.png,neutralLeft.png,right,180,,,,,0,0,0,0,0,35,35,37,195.72964419983327,,,,,,,,,,195.71730259992182,195.72964419983327,196.22980909980834,196.21572479978204,0.5,196.2157993996516,196.22980909980834,196.22980909980834,196.3294513002038,196.72982290014625,196.72982290014625,196.72982290014625,,,197.33310700021684,right,1,,,,,0.5929915998131037,None,,,,,,,,,,,,,,,,,,,,,,,,,,,,,,marigold,1,19,Female,Other,fairly normal,2024-12-04_15h12.46.341,dissANT,2023.2.3,59.94441939026222,2024-12-04 15h19.26.315080 -0600,
centre.png,neutralRight.png,right,0,,,,,0,0,0,0,0,36,36,42,197.34667770005763,,,,,,,,,,197.3349639000371,197.34667770005763,197.7964383997023,197.7818232998252,0.45,197.7818885995075,197.7964383997023,197.7964383997023,197.896492799744,198.2968274001032,198.2968274001032,198.2968274001032,,,198.83126499969512,right,1,,,,,0.5274410005658865,None,,,,,,,,,,,,,,,,,,,,,,,,,,,,,,marigold,1,19,Female,Other,fairly normal,2024-12-04_15h12.46.341,dissANT,2023.2.3,59.94441939026222,2024-12-04 15h19.26.315080 -0600,
lower.png,neutralRight.png,left,180,,,,,0,0,0,0,0,37,37,44,198.846451099962,,,,,,,,,,198.83230379968882,198.846451099962,199.34647929947823,199.33143689949065,0.5,199.33149820007384,199.34647929947823,199.34647929947823,199.4465327002108,199.8467766996473,199.8467766996473,199.8467766996473,,,200.46623510029167,left,1,,,,,0.6111990995705128,None,,,,,,,,,,,,,,,,,,,,,,,,,,,,,,marigold,1,19,Female,Other,fairly normal,2024-12-04_15h12.46.341,dissANT,2023.2.3,59.94441939026222,2024-12-04 15h19.26.315080 -0600,
both.png,congRight.png,right,0,,,,,0,0,0,0,0,38,38,9,200.4796698000282,,,,,,,,,,200.46798670012504,200.4796698000282,200.92966610006988,200.9136183001101,0.45,200.91366149950773,200.92966610006988,200.92966610006988,201.02998739946634,201.41332350019366,201.41332350019366,201.42994979955256,,,201.94651609938592,right,1,,,,,0.5230574999004602,None,,,,,,,,,,,,,,,,,,,,,,,,,,,,,,marigold,1,19,Female,Other,fairly normal,2024-12-04_15h12.46.341,dissANT,2023.2.3,59.94441939026222,2024-12-04 15h19.26.315080 -0600,
blank.png,neutralRight.png,left,180,,,,,0,0,0,0,0,39,39,47,201.9625830994919,,,,,,,,,,201.94703399948776,201.9625830994919,202.51298549957573,202.49864719994366,0.55,202.49873270001262,202.51298549957573,202.51298549957573,202.6131584001705,203.01328849978745,203.01328849978745,203.01328849978745,,,203.68266829941422,left,1,,,,,0.6518524000421166,None,,,,,,,,,,,,,,,,,,,,,,,,,,,,,,marigold,1,19,Female,Other,fairly normal,2024-12-04_15h12.46.341,dissANT,2023.2.3,59.94441939026222,2024-12-04 15h19.26.315080 -0600,
both.png,neutralRight.png,left,180,,,,,0,0,0,0,0,40,40,45,203.6960442001,,,,,,,,,,203.68453219998628,203.6960442001,204.2464221995324,204.2315063998103,0.55,204.23156419955194,204.2464221995324,204.2464221995324,204.34671910014004,204.7468526000157,204.7468526000157,204.7468526000157,,,205.31580389942974,left,1,,,,,0.5514559000730515,None,,,,,,,,,,,,,,,,,,,,,,,,,,,,,,marigold,1,19,Female,Other,fairly normal,2024-12-04_15h12.46.341,dissANT,2023.2.3,59.94441939026222,2024-12-04 15h19.26.315080 -0600,
centre.png,incongRight.png,right,0,,,,,0,0,0,0,0,41,41,26,205.3295980002731,,,,,,,,,,205.31763669941574,205.3295980002731,205.82968419976532,205.81521689984947,0.5,205.8152896994725,205.82968419976532,205.82968419976532,205.92979189939797,206.32977419998497,206.32977419998497,206.32977419998497,,,207.28231449984014,right,1,,,,,0.947830299846828,None,,,,,,,,,,,,,,,,,,,,,,,,,,,,,,marigold,1,19,Female,Other,fairly normal,2024-12-04_15h12.46.341,dissANT,2023.2.3,59.94441939026222,2024-12-04 15h19.26.315080 -0600,
centre.png,neutralLeft.png,left,0,,,,,0,0,0,0,0,42,42,34,207.29637669958174,,,,,,,,,,207.2837784998119,207.29637669958174,207.69625930022448,207.68177710007876,0.4,207.68186180014163,207.69625930022448,207.69625930022448,207.79644809942693,208.19662060029805,208.19662060029805,208.19662060029805,,,208.69883400015533,left,1,,,,,0.49464139994233847,None,,,,,,,,,,,,,,,,,,,,,,,,,,,,,,marigold,1,19,Female,Other,fairly normal,2024-12-04_15h12.46.341,dissANT,2023.2.3,59.94441939026222,2024-12-04 15h19.26.315080 -0600,
lower.png,congLeft.png,right,180,,,,,0,0,0,0,0,43,43,4,208.71305540017784,,,,,,,,,,208.70024190004915,208.71305540017784,209.16304889973253,209.14880120009184,0.45,209.14887539949268,209.16304889973253,209.16304889973253,209.263220500201,209.66302390024066,209.66302390024066,209.66302390024066,,,210.21610759943724,right,1,,,,,0.5500536998733878,None,,,,,,,,,,,,,,,,,,,,,,,,,,,,,,marigold,1,19,Female,Other,fairly normal,2024-12-04_15h12.46.341,dissANT,2023.2.3,59.94441939026222,2024-12-04 15h19.26.315080 -0600,
centre.png,neutralLeft.png,right,180,,,,,0,0,0,0,0,44,44,38,210.2295535998419,,,,,,,,,,210.21746640000492,210.2295535998419,210.7296861000359,210.71324309986085,0.5,210.71327750012279,210.7296861000359,210.7296861000359,210.82970170024782,211.21308069955558,211.21308069955558,211.22972379997373,,,211.81289499998093,right,1,,,,,0.5848233997821808,None,,,,,,,,,,,,,,,,,,,,,,,,,,,,,,marigold,1,19,Female,Other,fairly normal,2024-12-04_15h12.46.341,dissANT,2023.2.3,59.94441939026222,2024-12-04 15h19.26.315080 -0600,
blank.png,incongLeft.png,right,180,,,,,0,0,0,0,0,45,45,23,211.8295085001737,,,,,,,,,,211.8131940998137,211.8295085001737,212.32924249954522,212.31412229966372,0.5,212.31418980006129,212.32924249954522,212.32924249954522,212.42962330020964,212.81309869978577,212.81309869978577,212.82959689944983,,,213.482844799757,right,1,,,,,0.6645975997671485,None,,,,,,,,,,,,,,,,,,,,,,,,,,,,,,marigold,1,19,Female,Other,fairly normal,2024-12-04_15h12.46.341,dissANT,2023.2.3,59.94441939026222,2024-12-04 15h19.26.315080 -0600,
upper.png,congLeft.png,left,0,,,,,0,0,0,0,0,46,46,0,213.49625980015844,,,,,,,,,,213.48476179968566,213.49625980015844,213.99635010026395,213.98126820009202,0.5,213.98131509963423,213.99635010026395,213.99635010026395,214.09582799952477,214.49636720027775,214.49636720027775,214.49636720027775,,,215.21537919994444,left,1,,,,,0.7092870008200407,None,,,,,,,,,,,,,,,,,,,,,,,,,,,,,,marigold,1,19,Female,Other,fairly normal,2024-12-04_15h12.46.341,dissANT,2023.2.3,59.94441939026222,2024-12-04 15h19.26.315080 -0600,
blank.png,congLeft.png,left,0,,,,,0,0,0,0,0,47,47,3,215.22941590007395,,,,,,,,,,215.21683510020375,215.22941590007395,215.67960250005126,215.66437830030918,0.45,215.66443219967186,215.67960250005126,215.67960250005126,215.77943759970367,216.1795558994636,216.1795558994636,216.1795558994636,,,216.750287999399,left,1,,,,,0.5555960992351174,None,,,,,,,,,,,,,,,,,,,,,,,,,,,,,,marigold,1,19,Female,Other,fairly normal,2024-12-04_15h12.46.341,dissANT,2023.2.3,59.94441939026222,2024-12-04 15h19.26.315080 -0600,
lower.png,incongRight.png,left,180,,,,,0,0,0,0,1,0,48,28,216.7629484999925,,,,,,,,,,216.751908400096,216.7629484999925,217.1639016997069,217.1487175002694,0.4,217.14878959953785,217.1639016997069,217.1639016997069,217.26308050006628,217.66292909998447,217.66292909998447,217.67944329977036,,,218.9152868995443,right,0,,,,,1.2485544001683593,None,,,,,,,,,,,,,,,,,,,,,,,,,,,,,,marigold,1,19,Female,Other,fairly normal,2024-12-04_15h12.46.341,dissANT,2023.2.3,59.94441939026222,2024-12-04 15h19.26.315080 -0600,
upper.png,incongLeft.png,left,0,,,,,0,0,0,0,1,1,49,16,218.92919659987092,,,,,,,,,,218.91669270023704,218.92919659987092,219.479324599728,219.4645341001451,0.55,219.46460209973156,219.479324599728,219.479324599728,219.57940130028874,219.9793994994834,219.9793994994834,219.9793994994834,,,221.08311530016363,right,0,,,,,1.0954537997022271,None,,,,,,,,,,,,,,,,,,,,,,,,,,,,,,marigold,1,19,Female,Other,fairly normal,2024-12-04_15h12.46.341,dissANT,2023.2.3,59.94441939026222,2024-12-04 15h19.26.315080 -0600,
centre.png,incongRight.png,right,0,,,,,0,0,0,0,1,2,50,26,221.09614240005612,,,,,,,,,,221.0850842995569,221.09614240005612,221.49587340001017,221.481311599724,0.4,221.48139300011098,221.49587340001017,221.49587340001017,221.5958105996251,221.99614449962974,221.99614449962974,221.99614449962974,,,223.0817855000496,right,1,,,,,1.0772919999435544,None,,,,,,,,,,,,,,,,,,,,,,,,,,,,,,marigold,1,19,Female,Other,fairly normal,2024-12-04_15h12.46.341,dissANT,2023.2.3,59.94441939026222,2024-12-04 15h19.26.315080 -0600,
centre.png,neutralLeft.png,right,180,,,,,0,0,0,0,1,3,51,38,223.09616339951754,,,,,,,,,,223.08320409990847,223.09616339951754,223.59610489942133,223.58155670017004,0.5,223.58162879943848,223.59610489942133,223.59610489942133,223.69585120026022,224.0961899003014,224.0961899003014,224.0961899003014,,,224.78283799998462,right,1,,,,,0.6697509000077844,None,,,,,,,,,,,,,,,,,,,,,,,,,,,,,,marigold,1,19,Female,Other,fairly normal,2024-12-04_15h12.46.341,dissANT,2023.2.3,59.94441939026222,2024-12-04 15h19.26.315080 -0600,
upper.png,neutralLeft.png,left,0,,,,,0,0,0,0,1,4,52,32,224.79592279996723,,,,,,,,,,224.7848779000342,224.79592279996723,225.2460896000266,225.23149439971894,0.45,225.23156489990652,225.2460896000266,225.2460896000266,225.3459292994812,225.74610270000994,225.74610270000994,225.74610270000994,,,226.3982009999454,left,1,,,,,0.6467106007039547,None,,,,,,,,,,,,,,,,,,,,,,,,,,,,,,marigold,1,19,Female,Other,fairly normal,2024-12-04_15h12.46.341,dissANT,2023.2.3,59.94441939026222,2024-12-04 15h19.26.315080 -0600,
centre.png,congLeft.png,right,180,,,,,0,0,0,0,1,5,53,6,226.4127516001463,,,,,,,,,,226.39961559977382,226.4127516001463,226.86259000003338,226.84852899983525,0.45,226.84859629999846,226.86259000003338,226.86259000003338,226.96288970019668,227.36331029981375,227.36331029981375,227.36331029981375,,,228.11399309989065,right,1,,,,,0.7362243002280593,None,,,,,,,,,,,,,,,,,,,,,,,,,,,,,,marigold,1,19,Female,Other,fairly normal,2024-12-04_15h12.46.341,dissANT,2023.2.3,59.94441939026222,2024-12-04 15h19.26.315080 -0600,
both.png,neutralRight.png,left,180,,,,,0,0,0,0,1,6,54,45,228.128710700199,,,,,,,,,,228.11536240018904,228.128710700199,228.52913040015846,228.51371609978378,0.4,228.51377569977194,228.52913040015846,228.52913040015846,228.62922909948975,229.0125431995839,229.0125431995839,229.02925570029765,,,229.66565429978073,left,1,,,,,0.6486854003742337,None,,,,,,,,,,,,,,,,,,,,,,,,,,,,,,marigold,1,19,Female,Other,fairly normal,2024-12-04_15h12.46.341,dissANT,2023.2.3,59.94441939026222,2024-12-04 15h19.26.315080 -0600,
blank.png,incongRight.png,left,180,,,,,0,0,0,0,1,7,55,31,229.6791209001094,,,,,,,,,,229.66722000017762,229.6791209001094,230.12881070002913,230.11519860010594,0.45,230.11529850028455,230.12881070002913,230.12881070002913,230.22922029998153,230.6292752996087,230.6292752996087,230.6292752996087,,,231.4986293995753,right,0,,,,,0.8664831006899476,None,,,,,,,,,,,,,,,,,,,,,,,,,,,,,,marigold,1,19,Female,Other,fairly normal,2024-12-04_15h12.46.341,dissANT,2023.2.3,59.94441939026222,2024-12-04 15h19.26.315080 -0600,
upper.png,neutralRight.png,right,0,,,,,0,0,0,0,1,8,56,40,231.5125428000465,,,,,,,,,,231.50007599964738,231.5125428000465,231.91241089999676,231.8976531000808,0.4,231.89771659951657,231.91241089999676,231.91241089999676,232.01258349977434,232.41282960027456,232.41282960027456,232.41282960027456,,,233.015419899486,right,1,,,,,0.5870759002864361,None,,,,,,,,,,,,,,,,,,,,,,,,,,,,,,marigold,1,19,Female,Other,fairly normal,2024-12-04_15h12.46.341,dissANT,2023.2.3,59.94441939026222,2024-12-04 15h19.26.315080 -0600,
both.png,congLeft.png,right,180,,,,,0,0,0,0,1,9,57,5,233.0289546996355,,,,,,,,,,233.01729589980096,233.0289546996355,233.57907309941947,233.5640469994396,0.55,233.56410480011255,233.57907309941947,233.57907309941947,233.67899199947715,234.07893599942327,234.07893599942327,234.07893599942327,,,234.5813464000821,right,1,,,,,0.4930555997416377,None,,,,,,,,,,,,,,,,,,,,,,,,,,,,,,marigold,1,19,Female,Other,fairly normal,2024-12-04_15h12.46.341,dissANT,2023.2.3,59.94441939026222,2024-12-04 15h19.26.315080 -0600,
lower.png,congRight.png,left,180,,,,,0,0,0,0,1,10,58,12,234.59596330020577,,,,,,,,,,234.5827938998118,234.59596330020577,235.09579569939524,235.08213640004396,0.5,235.08222249988467,235.09579569939524,235.09579569939524,235.19543019961566,235.5958008999005,235.5958008999005,235.5958008999005,,,236.1134730996564,left,1,,,,,0.5132698994129896,None,,,,,,,,,,,,,,,,,,,,,,,,,,,,,,marigold,1,19,Female,Other,fairly normal,2024-12-04_15h12.46.341,dissANT,2023.2.3,59.94441939026222,2024-12-04 15h19.26.315080 -0600,
blank.png,congRight.png,left,180,,,,,0,0,0,0,1,11,59,15,236.1291118999943,,,,,,,,,,236.114471799694,236.1291118999943,236.67899199947715,236.664108899422,0.55,236.66416679974645,236.67899199947715,236.67899199947715,236.77915550023317,237.17899230029434,237.17899230029434,237.17899230029434,,,237.71525929961354,left,1,,,,,0.5330641996115446,None,,,,,,,,,,,,,,,,,,,,,,,,,,,,,,marigold,1,19,Female,Other,fairly normal,2024-12-04_15h12.46.341,dissANT,2023.2.3,59.94441939026222,2024-12-04 15h19.26.315080 -0600,
centre.png,incongLeft.png,right,180,,,,,0,0,0,0,1,12,60,22,237.72900259960443,,,,,,,,,,237.71673289965838,237.72900259960443,238.12894649989903,238.1140713999048,0.4,238.1141387997195,238.12894649989903,238.12894649989903,238.2289706999436,238.6290549999103,238.6290549999103,238.6290549999103,,,239.34829130023718,right,1,,,,,0.7073138998821378,None,,,,,,,,,,,,,,,,,,,,,,,,,,,,,,marigold,1,19,Female,Other,fairly normal,2024-12-04_15h12.46.341,dissANT,2023.2.3,59.94441939026222,2024-12-04 15h19.26.315080 -0600,
blank.png,neutralRight.png,left,180,,,,,0,0,0,0,1,13,61,47,239.36233109980822,,,,,,,,,,239.349914399907,239.36233109980822,239.8617254998535,239.84609329979867,0.5,239.84613129962236,239.8617254998535,239.8617254998535,239.96253099944443,240.3458815002814,240.3458815002814,240.3625165000558,,,240.91552329994738,left,1,,,,,0.5520331999287009,None,,,,,,,,,,,,,,,,,,,,,,,,,,,,,,marigold,1,19,Female,Other,fairly normal,2024-12-04_15h12.46.341,dissANT,2023.2.3,59.94441939026222,2024-12-04 15h19.26.315080 -0600,
blank.png,neutralLeft.png,right,180,,,,,0,0,0,0,1,14,62,39,240.92906519956887,,,,,,,,,,240.91739930026233,240.92906519956887,241.37879250012338,241.3642908995971,0.45,241.36437579989433,241.37879250012338,241.37879250012338,241.4789113001898,241.87867959961295,241.87867959961295,241.87867959961295,,,242.36532639991492,right,1,,,,,0.4834625003859401,None,,,,,,,,,,,,,,,,,,,,,,,,,,,,,,marigold,1,19,Female,Other,fairly normal,2024-12-04_15h12.46.341,dissANT,2023.2.3,59.94441939026222,2024-12-04 15h19.26.315080 -0600,
blank.png,congLeft.png,right,180,,,,,0,0,0,0,1,15,63,7,242.37860849965364,,,,,,,,,,242.36672419961542,242.37860849965364,242.87847399991006,242.86227810010314,0.5,242.86229019984603,242.87847399991006,242.87847399991006,242.97842479962856,243.36170869972557,243.36170869972557,243.37841839995235,,,243.86482100002468,right,1,,,,,0.4909168994054198,None,,,,,,,,,,,,,,,,,,,,,,,,,,,,,,marigold,1,19,Female,Other,fairly normal,2024-12-04_15h12.46.341,dissANT,2023.2.3,59.94441939026222,2024-12-04 15h19.26.315080 -0600,
blank.png,incongLeft.png,right,180,,,,,0,0,0,0,1,16,64,23,243.87841830030084,,,,,,,,,,243.86632509995252,243.87841830030084,244.42869579978287,244.41464309953153,0.55,244.41471489984542,244.42869579978287,244.42869579978287,244.52869339939207,244.92891999986023,244.92891999986023,244.92891999986023,,,246.01552669983357,right,1,,,,,1.08265579957515,None,,,,,,,,,,,,,,,,,,,,,,,,,,,,,,marigold,1,19,Female,Other,fairly normal,2024-12-04_15h12.46.341,dissANT,2023.2.3,59.94441939026222,2024-12-04 15h19.26.315080 -0600,
blank.png,neutralRight.png,right,0,,,,,0,0,0,0,1,17,65,43,246.02882790006697,,,,,,,,,,246.01723110023886,246.02882790006697,246.52847860008478,246.51266589947045,0.5,246.51270319987088,246.52847860008478,246.52847860008478,246.6282556997612,247.01213799975812,247.01213799975812,247.02886199951172,,,247.68135209940374,right,1,,,,,0.6583519000560045,None,,,,,,,,,,,,,,,,,,,,,,,,,,,,,,marigold,1,19,Female,Other,fairly normal,2024-12-04_15h12.46.341,dissANT,2023.2.3,59.94441939026222,2024-12-04 15h19.26.315080 -0600,
blank.png,incongLeft.png,left,0,,,,,0,0,0,0,1,18,66,19,247.69538749940693,,,,,,,,,,247.68281119968742,247.69538749940693,248.19540339987725,248.18081719987094,0.5,248.1808775998652,248.19540339987725,248.19540339987725,248.2950935997069,248.69573070015758,248.69573070015758,248.69573070015758,,,250.03071250021458,left,1,,,,,1.3267002999782562,None,,,,,,,,,,,,,,,,,,,,,,,,,,,,,,marigold,1,19,Female,Other,fairly normal,2024-12-04_15h12.46.341,dissANT,2023.2.3,59.94441939026222,2024-12-04 15h19.26.315080 -0600,
centre.png,congLeft.png,left,0,,,,,0,0,0,0,1,19,67,2,250.04537199996412,,,,,,,,,,250.03236840013415,250.04537199996412,250.54534209985286,250.5311747994274,0.5,250.53125690016896,250.54534209985286,250.54534209985286,250.64533249940723,251.04563589952886,251.04563589952886,251.04563589952886,,,251.6819660998881,left,1,,,,,0.6325182002037764,None,,,,,,,,,,,,,,,,,,,,,,,,,,,,,,marigold,1,19,Female,Other,fairly normal,2024-12-04_15h12.46.341,dissANT,2023.2.3,59.94441939026222,2024-12-04 15h19.26.315080 -0600,
upper.png,congLeft.png,left,0,,,,,0,0,0,0,1,20,68,0,251.6954637998715,,,,,,,,,,251.68357549980283,251.6954637998715,252.195358899422,252.1811232995242,0.5,252.18120490014553,252.195358899422,252.195358899422,252.29547659959644,252.69551869947463,252.69551869947463,252.69551869947463,,,253.61474050022662,left,1,,,,,0.9104594001546502,None,,,,,,,,,,,,,,,,,,,,,,,,,,,,,,marigold,1,19,Female,Other,fairly normal,2024-12-04_15h12.46.341,dissANT,2023.2.3,59.94441939026222,2024-12-04 15h19.26.315080 -0600,
lower.png,neutralRight.png,left,180,,,,,0,0,0,0,1,21,69,44,253.62873139977455,,,,,,,,,,253.6163157997653,253.62873139977455,254.0785558996722,254.0635722996667,0.45,254.0636211996898,254.0785558996722,254.0785558996722,254.1787785999477,254.5786824002862,254.5786824002862,254.5786824002862,,,255.24912689998746,left,1,,,,,0.6634798003360629,None,,,,,,,,,,,,,,,,,,,,,,,,,,,,,,marigold,1,19,Female,Other,fairly normal,2024-12-04_15h12.46.341,dissANT,2023.2.3,59.94441939026222,2024-12-04 15h19.26.315080 -0600,
both.png,congRight.png,right,0,,,,,0,0,0,0,1,22,70,9,255.26199890021235,,,,,,,,,,255.2505319993943,255.26199890021235,255.6618131995201,255.64743969962,0.4,255.64751099981368,255.6618131995201,255.6618131995201,255.76197529956698,256.16185589972883,256.16185589972883,256.16185589972883,,,256.93077589944005,right,1,,,,,0.7660540994256735,None,,,,,,,,,,,,,,,,,,,,,,,,,,,,,,marigold,1,19,Female,Other,fairly normal,2024-12-04_15h12.46.341,dissANT,2023.2.3,59.94441939026222,2024-12-04 15h19.26.315080 -0600,
centre.png,congRight.png,right,0,,,,,0,0,0,0,1,23,71,10,256.9452743995935,,,,,,,,,,256.9318565996364,256.9452743995935,257.3451936999336,257.33104079961777,0.4,257.3311203001067,257.3451936999336,257.3451936999336,257.4448595996946,257.84517410025,257.84517410025,257.84517410025,,,258.312930399552,right,1,,,,,0.45324889943003654,None,,,,,,,,,,,,,,,,,,,,,,,,,,,,,,marigold,1,19,Female,Other,fairly normal,2024-12-04_15h12.46.341,dissANT,2023.2.3,59.94441939026222,2024-12-04 15h19.26.315080 -0600,
upper.png,congRight.png,right,0,,,,,0,0,0,0,1,24,72,8,258.3285500993952,,,,,,,,,,258.3140201997012,258.3285500993952,258.87853049952537,258.86326389946043,0.55,258.8633209001273,258.87853049952537,258.87853049952537,258.97843400016427,259.3787692002952,259.3787692002952,259.3787692002952,,,259.81550339981914,right,1,,,,,0.43385220039635897,None,,,,,,,,,,,,,,,,,,,,,,,,,,,,,,marigold,1,19,Female,Other,fairly normal,2024-12-04_15h12.46.341,dissANT,2023.2.3,59.94441939026222,2024-12-04 15h19.26.315080 -0600,
lower.png,congLeft.png,right,180,,,,,0,0,0,0,1,25,73,4,259.828484499827,,,,,,,,,,259.81692590005696,259.828484499827,260.27830090001225,260.2622175998986,0.45,260.26225809939206,260.27830090001225,260.27830090001225,260.37837249971926,260.7618870995939,260.7618870995939,260.77849439997226,,,261.2486597998068,right,1,,,,,0.4778746999800205,None,,,,,,,,,,,,,,,,,,,,,,,,,,,,,,marigold,1,19,Female,Other,fairly normal,2024-12-04_15h12.46.341,dissANT,2023.2.3,59.94441939026222,2024-12-04 15h19.26.315080 -0600,
blank.png,incongRight.png,right,0,,,,,0,0,0,0,1,26,74,27,261.26174109987915,,,,,,,,,,261.24997560027987,261.26174109987915,261.81185499951243,261.7965097995475,0.55,261.79656360019,261.81185499951243,261.81185499951243,261.91162780020386,262.31176479998976,262.31176479998976,262.31176479998976,264.01191169954836,264.01191169954836,263.99585499987006,None,0,,,,,,,,,,,,,,,,,,,,,,,,,,,,,,,,,,,,marigold,1,19,Female,Other,fairly normal,2024-12-04_15h12.46.341,dissANT,2023.2.3,59.94441939026222,2024-12-04 15h19.26.315080 -0600,
both.png,incongRight.png,left,180,,,,,0,0,0,0,1,27,75,29,264.01191169954836,,,,,,,,,,263.99692589975893,264.01191169954836,264.41176979988813,264.3967802999541,0.4,264.3968436997384,264.41176979988813,264.41176979988813,264.5118933999911,264.9117988999933,264.9117988999933,264.9117988999933,,,265.94711750000715,left,1,,,,,1.0306835994124413,None,,,,,,,,,,,,,,,,,,,,,,,,,,,,,,marigold,1,19,Female,Other,fairly normal,2024-12-04_15h12.46.341,dissANT,2023.2.3,59.94441939026222,2024-12-04 15h19.26.315080 -0600,
both.png,neutralRight.png,right,0,,,,,0,0,0,0,1,28,76,41,265.9618945000693,,,,,,,,,,265.948493800126,265.9618945000693,266.46149559970945,266.4468179997057,0.5,266.4469003994018,266.46149559970945,266.46149559970945,266.56105779949576,266.9617572994903,266.9617572994903,266.9617572994903,,,267.56362960021943,right,1,,,,,0.5932681998237967,None,,,,,,,,,,,,,,,,,,,,,,,,,,,,,,marigold,1,19,Female,Other,fairly normal,2024-12-04_15h12.46.341,dissANT,2023.2.3,59.94441939026222,2024-12-04 15h19.26.315080 -0600,
blank.png,congRight.png,right,0,,,,,0,0,0,0,1,29,77,11,267.5782707994804,,,,,,,,,,267.5651463996619,267.5782707994804,268.12814390007406,268.11236419994384,0.55,268.1124045001343,268.12814390007406,268.12814390007406,268.228597600013,268.61186159960926,268.61186159960926,268.6284111998975,,,269.16405809950083,right,1,,,,,0.5372024001553655,None,,,,,,,,,,,,,,,,,,,,,,,,,,,,,,marigold,1,19,Female,Other,fairly normal,2024-12-04_15h12.46.341,dissANT,2023.2.3,59.94441939026222,2024-12-04 15h19.26.315080 -0600,
centre.png,incongRight.png,left,180,,,,,0,0,0,0,1,30,78,30,269.1779704997316,,,,,,,,,,269.16554949991405,269.1779704997316,269.73119609989226,269.72392939962447,0.55,269.72395189944655,269.73119609989226,269.73119609989226,269.8452188000083,270.22813569940627,270.22813569940627,270.24512990005314,,,271.4147974997759,left,1,,,,,1.1819057995453477,None,,,,,,,,,,,,,,,,,,,,,,,,,,,,,,marigold,1,19,Female,Other,fairly normal,2024-12-04_15h12.46.341,dissANT,2023.2.3,59.94441939026222,2024-12-04 15h19.26.315080 -0600,
both.png,neutralLeft.png,left,0,,,,,0,0,0,0,1,31,79,33,271.4281986998394,,,,,,,,,,271.41647509951144,271.4281986998394,271.87793659977615,271.8630237998441,0.45,271.86308629997075,271.87793659977615,271.87793659977615,271.97837419994175,272.3781123999506,272.3781123999506,272.3781123999506,,,273.0654504997656,left,1,,,,,0.6733111003413796,None,,,,,,,,,,,,,,,,,,,,,,,,,,,,,,marigold,1,19,Female,Other,fairly normal,2024-12-04_15h12.46.341,dissANT,2023.2.3,59.94441939026222,2024-12-04 15h19.26.315080 -0600,
centre.png,incongLeft.png,left,0,,,,,0,0,0,0,1,32,80,18,273.0778935002163,,,,,,,,,,273.0668887998909,273.0778935002163,273.5279236994684,273.5136033995077,0.45,273.5136668002233,273.5279236994684,273.5279236994684,273.628373099491,274.02815330028534,274.02815330028534,274.02815330028534,,,274.7306412002072,left,1,,,,,0.6920659998431802,None,,,,,,,,,,,,,,,,,,,,,,,,,,,,,,marigold,1,19,Female,Other,fairly normal,2024-12-04_15h12.46.341,dissANT,2023.2.3,59.94441939026222,2024-12-04 15h19.26.315080 -0600,
centre.png,neutralLeft.png,left,0,,,,,0,0,0,0,1,33,81,34,274.74505340028554,,,,,,,,,,274.73223499953747,274.74505340028554,275.24464389961213,275.2296672994271,0.5,275.22972430009395,275.24464389961213,275.24464389961213,275.34482579957694,275.74508529994637,275.74508529994637,275.74508529994637,,,276.2812491999939,left,1,,,,,0.5205699000507593,None,,,,,,,,,,,,,,,,,,,,,,,,,,,,,,marigold,1,19,Female,Other,fairly normal,2024-12-04_15h12.46.341,dissANT,2023.2.3,59.94441939026222,2024-12-04 15h19.26.315080 -0600,
lower.png,neutralLeft.png,right,180,,,,,0,0,0,0,1,34,82,36,276.29478009976447,,,,,,,,,,276.28299139998853,276.29478009976447,276.7944446997717,276.7784319994971,0.5,276.77846219949424,276.7944446997717,276.7944446997717,276.8949552997947,277.27783379983157,277.27783379983157,277.2949815997854,,,277.84744870010763,right,1,,,,,0.5561240995302796,None,,,,,,,,,,,,,,,,,,,,,,,,,,,,,,marigold,1,19,Female,Other,fairly normal,2024-12-04_15h12.46.341,dissANT,2023.2.3,59.94441939026222,2024-12-04 15h19.26.315080 -0600,
both.png,incongRight.png,right,0,,,,,0,0,0,0,1,35,83,25,277.8613610994071,,,,,,,,,,277.8490873994306,277.8613610994071,278.26129740010947,278.24661459960043,0.4,278.2466787993908,278.26129740010947,278.26129740010947,278.36127990018576,278.7613113000989,278.7613113000989,278.7613113000989,,,280.1800325997174,right,1,,,,,1.4137289999052882,None,,,,,,,,,,,,,,,,,,,,,,,,,,,,,,marigold,1,19,Female,Other,fairly normal,2024-12-04_15h12.46.341,dissANT,2023.2.3,59.94441939026222,2024-12-04 15h19.26.315080 -0600,
both.png,incongLeft.png,left,0,,,,,0,0,0,0,1,36,84,17,280.1946438997984,,,,,,,,,,280.1814430002123,280.1946438997984,280.6946636000648,280.6794392000884,0.5,280.6794932000339,280.6946636000648,280.6946636000648,280.79475330002606,281.1949741002172,281.1949741002172,281.1949741002172,,,282.14732620026916,left,1,,,,,0.9496395997703075,None,,,,,,,,,,,,,,,,,,,,,,,,,,,,,,marigold,1,19,Female,Other,fairly normal,2024-12-04_15h12.46.341,dissANT,2023.2.3,59.94441939026222,2024-12-04 15h19.26.315080 -0600,
blank.png,congLeft.png,left,0,,,,,0,0,0,0,1,37,85,3,282.16148789972067,,,,,,,,,,282.1486348994076,282.16148789972067,282.56113849952817,282.5466540995985,0.4,282.546717999503,282.56113849952817,282.56113849952817,282.6609982000664,283.0615435000509,283.0615435000509,283.0615435000509,,,283.7304557999596,left,1,,,,,0.6525555001571774,None,,,,,,,,,,,,,,,,,,,,,,,,,,,,,,marigold,1,19,Female,Other,fairly normal,2024-12-04_15h12.46.341,dissANT,2023.2.3,59.94441939026222,2024-12-04 15h19.26.315080 -0600,
both.png,congLeft.png,left,0,,,,,0,0,0,0,1,38,86,1,283.74477099999785,,,,,,,,,,283.73231470026076,283.74477099999785,284.29451599996537,284.27956070005894,0.55,284.2796181999147,284.29451599996537,284.29451599996537,284.3947652997449,284.7948444997892,284.7948444997892,284.7948444997892,,,285.3646794995293,left,1,,,,,0.5528894998133183,None,,,,,,,,,,,,,,,,,,,,,,,,,,,,,,marigold,1,19,Female,Other,fairly normal,2024-12-04_15h12.46.341,dissANT,2023.2.3,59.94441939026222,2024-12-04 15h19.26.315080 -0600,
both.png,neutralLeft.png,right,180,,,,,0,0,0,0,1,39,87,37,285.37784969992936,,,,,,,,,,285.36655629985034,285.37784969992936,285.82791410014033,285.813096200116,0.45,285.8131607994437,285.82791410014033,285.82791410014033,285.9277917994186,286.3279357003048,286.3279357003048,286.3279357003048,,,286.9481557002291,right,1,,,,,0.6047144001349807,None,,,,,,,,,,,,,,,,,,,,,,,,,,,,,,marigold,1,19,Female,Other,fairly normal,2024-12-04_15h12.46.341,dissANT,2023.2.3,59.94441939026222,2024-12-04 15h19.26.315080 -0600,
lower.png,incongLeft.png,right,180,,,,,0,0,0,0,1,40,88,20,286.96113409940153,,,,,,,,,,286.94975349958986,286.96113409940153,287.5111111002043,287.49562389962375,0.55,287.49566650018096,287.5111111002043,287.5111111002043,287.61126859951764,288.0111839994788,288.0111839994788,288.0111839994788,,,288.81440189946443,right,1,,,,,0.7981818001717329,None,,,,,,,,,,,,,,,,,,,,,,,,,,,,,,marigold,1,19,Female,Other,fairly normal,2024-12-04_15h12.46.341,dissANT,2023.2.3,59.94441939026222,2024-12-04 15h19.26.315080 -0600,
both.png,incongLeft.png,right,180,,,,,0,0,0,0,1,41,89,21,288.8277151994407,,,,,,,,,,288.8157417997718,288.8277151994407,289.377682399936,289.363442200236,0.55,289.3635136997327,289.377682399936,289.377682399936,289.4777549998835,289.8777337996289,289.8777337996289,289.8777337996289,,,290.51513169985265,right,1,,,,,0.6252883998677135,None,,,,,,,,,,,,,,,,,,,,,,,,,,,,,,marigold,1,19,Female,Other,fairly normal,2024-12-04_15h12.46.341,dissANT,2023.2.3,59.94441939026222,2024-12-04 15h19.26.315080 -0600,
centre.png,congRight.png,left,180,,,,,0,0,0,0,1,42,90,14,290.52753749955446,,,,,,,,,,290.5184313999489,290.52753749955446,290.9777234001085,290.962800799869,0.45,290.9628627002239,290.9777234001085,290.9777234001085,291.0777396997437,291.4777317997068,291.4777317997068,291.4777317997068,,,292.197215099819,left,1,,,,,0.7041237996891141,None,,,,,,,,,,,,,,,,,,,,,,,,,,,,,,marigold,1,19,Female,Other,fairly normal,2024-12-04_15h12.46.341,dissANT,2023.2.3,59.94441939026222,2024-12-04 15h19.26.315080 -0600,
both.png,congRight.png,left,180,,,,,0,0,0,0,1,43,91,13,292.2109864000231,,,,,,,,,,292.1988367000595,292.2109864000231,292.66086480021477,292.64660870004445,0.45,292.64668979961425,292.66086480021477,292.66086480021477,292.7612562002614,293.16110750008374,293.16110750008374,293.16110750008374,,,293.6140187997371,left,1,,,,,0.44080989994108677,None,,,,,,,,,,,,,,,,,,,,,,,,,,,,,,marigold,1,19,Female,Other,fairly normal,2024-12-04_15h12.46.341,dissANT,2023.2.3,59.94441939026222,2024-12-04 15h19.26.315080 -0600,
upper.png,incongRight.png,right,0,,,,,0,0,0,0,1,44,92,24,293.62747489940375,,,,,,,,,,293.6158769996837,293.62747489940375,294.1775655001402,294.1621236996725,0.55,294.16217679996043,294.1775655001402,294.1775655001402,294.27772840019315,294.67782029975206,294.67782029975206,294.67782029975206,,,295.78028699941933,right,1,,,,,1.0975393000990152,None,,,,,,,,,,,,,,,,,,,,,,,,,,,,,,marigold,1,19,Female,Other,fairly normal,2024-12-04_15h12.46.341,dissANT,2023.2.3,59.94441939026222,2024-12-04 15h19.26.315080 -0600,
centre.png,neutralRight.png,left,180,,,,,0,0,0,0,1,45,93,46,295.79437089990824,,,,,,,,,,295.78164799977094,295.79437089990824,296.1941775996238,296.17931280005723,0.4,296.1793766999617,296.1941775996238,296.1941775996238,296.2943724999204,296.69463200028986,296.69463200028986,296.69463200028986,,,297.44544219970703,left,1,,,,,0.7445847000926733,None,,,,,,,,,,,,,,,,,,,,,,,,,,,,,,marigold,1,19,Female,Other,fairly normal,2024-12-04_15h12.46.341,dissANT,2023.2.3,59.94441939026222,2024-12-04 15h19.26.315080 -0600,
blank.png,neutralLeft.png,left,0,,,,,0,0,0,0,1,46,94,35,297.460765699856,,,,,,,,,,297.44672810006887,297.460765699856,298.0107857994735,297.9955835994333,0.55,297.9956387002021,298.0107857994735,298.0107857994735,298.11076799966395,298.5109380995855,298.5109380995855,298.5109380995855,,,299.06277649942786,left,1,,,,,0.5347137004137039,None,,,,,,,,,,,,,,,,,,,,,,,,,,,,,,marigold,1,19,Female,Other,fairly normal,2024-12-04_15h12.46.341,dissANT,2023.2.3,59.94441939026222,2024-12-04 15h19.26.315080 -0600,
centre.png,neutralRight.png,right,0,,,,,0,0,0,0,1,47,95,42,299.0773018999025,,,,,,,,,,299.06428330019116,299.0773018999025,299.52758799958974,299.51254540029913,0.45,299.51260400004685,299.52758799958974,299.52758799958974,299.6276706997305,300.0273885997012,300.0273885997012,300.0273885997012,,,300.8635098999366,right,1,,,,,0.8275146996602416,None,,,,,,,,,,,,,,,,,,,,,,,,,,,,,,marigold,1,19,Female,Other,fairly normal,2024-12-04_15h12.46.341,dissANT,2023.2.3,59.94441939026222,2024-12-04 15h19.26.315080 -0600,
,,,,,,,,0,0,0,0,,,,,,,,,,,,,,,,,,,,,,,,,,,,,,,,,,,,,,,,,,,,,300.8646472999826,300.8773779999465,300.8773779999465,327.36242489982396,,,,,,,,,,,,,,,,,,,marigold,1,19,Female,Other,fairly normal,2024-12-04_15h12.46.341,dissANT,2023.2.3,59.94441939026222,2024-12-04 15h19.26.315080 -0600,
both.png,incongRight.png,right,0,,,,,1,0,1,0,0,0,0,25,327.3855453999713,,,,,,,,,,327.3818485997617,327.3855453999713,327.7933037998155,327.77854359988123,0.4,327.77861300017685,327.7933037998155,327.7933037998155,327.89382989984006,328.29354429990053,328.29354429990053,328.29354429990053,,,329.8119305996224,right,1,,,,,1.5089769000187516,None,,,,,,,,,,,,,,,,,,,,,,,,,,,,,,marigold,1,19,Female,Other,fairly normal,2024-12-04_15h12.46.341,dissANT,2023.2.3,59.94441939026222,2024-12-04 15h19.26.315080 -0600,
centre.png,incongRight.png,left,180,,,,,1,0,1,0,0,1,1,30,329.82689750008285,,,,,,,,,,329.81352519989014,329.82689750008285,330.2263209996745,330.2119722003117,0.4,330.2120431000367,330.2263209996745,330.2263209996745,330.326881499961,330.7265582997352,330.7265582997352,330.7265582997352,,,331.6624537995085,right,0,,,,,0.9230800997465849,None,,,,,,,,,,,,,,,,,,,,,,,,,,,,,,marigold,1,19,Female,Other,fairly normal,2024-12-04_15h12.46.341,dissANT,2023.2.3,59.94441939026222,2024-12-04 15h19.26.315080 -0600,
centre.png,incongRight.png,right,0,,,,,1,0,1,0,0,2,2,26,331.6767937000841,,,,,,,,,,331.6639029001817,331.6767937000841,332.1764503996819,332.1624341001734,0.5,332.16250449977815,332.1764503996819,332.1764503996819,332.27689769957215,332.6768100000918,332.6768100000918,332.6768100000918,,,333.51293789967895,right,1,,,,,0.8254613997414708,None,,,,,,,,,,,,,,,,,,,,,,,,,,,,,,marigold,1,19,Female,Other,fairly normal,2024-12-04_15h12.46.341,dissANT,2023.2.3,59.94441939026222,2024-12-04 15h19.26.315080 -0600,
upper.png,neutralLeft.png,left,0,,,,,1,0,1,0,0,3,3,32,333.526740799658,,,,,,,,,,333.51459849998355,333.526740799658,334.07669979985803,334.0624770997092,0.55,334.0625692997128,334.07669979985803,334.07669979985803,334.17667039949447,334.5766214998439,334.5766214998439,334.5766214998439,,,335.1120953001082,left,1,,,,,0.5332658002153039,None,,,,,,,,,,,,,,,,,,,,,,,,,,,,,,marigold,1,19,Female,Other,fairly normal,2024-12-04_15h12.46.341,dissANT,2023.2.3,59.94441939026222,2024-12-04 15h19.26.315080 -0600,
lower.png,incongRight.png,left,180,,,,,1,0,1,0,0,4,4,28,335.1266714995727,,,,,,,,,,335.11324710026383,335.1266714995727,335.5765399998054,335.5629650996998,0.45,335.56304639950395,335.5765399998054,335.5765399998054,335.6766512999311,336.0769357997924,336.0769357997924,336.0769357997924,,,337.0633934997022,left,1,,,,,0.9838047996163368,None,,,,,,,,,,,,,,,,,,,,,,,,,,,,,,marigold,1,19,Female,Other,fairly normal,2024-12-04_15h12.46.341,dissANT,2023.2.3,59.94441939026222,2024-12-04 15h19.26.315080 -0600,
blank.png,neutralRight.png,left,180,,,,,1,0,1,0,0,5,5,47,337.0766829997301,,,,,,,,,,337.0648930994794,337.0766829997301,337.4765149997547,337.4609628999606,0.4,337.46100919973105,337.4765149997547,337.4765149997547,337.5765284001827,337.9595280997455,337.9595280997455,337.9767070002854,,,338.4966289997101,left,1,,,,,0.5207460997626185,None,,,,,,,,,,,,,,,,,,,,,,,,,,,,,,marigold,1,19,Female,Other,fairly normal,2024-12-04_15h12.46.341,dissANT,2023.2.3,59.94441939026222,2024-12-04 15h19.26.315080 -0600,
both.png,congLeft.png,right,180,,,,,1,0,1,0,0,6,6,5,338.5100448997691,,,,,,,,,,338.4985370002687,338.5100448997691,339.009763199836,338.99325499963015,0.5,338.9932655999437,339.009763199836,339.009763199836,339.1094891997054,339.4933123998344,339.4933123998344,339.5099682994187,,,340.1116086002439,right,1,,,,,0.6124558998271823,None,,,,,,,,,,,,,,,,,,,,,,,,,,,,,,marigold,1,19,Female,Other,fairly normal,2024-12-04_15h12.46.341,dissANT,2023.2.3,59.94441939026222,2024-12-04 15h19.26.315080 -0600,
blank.png,incongLeft.png,right,180,,,,,1,0,1,0,0,7,7,23,340.12660349998623,,,,,,,,,,340.11294879950583,340.12660349998623,340.6761937998235,340.6615904001519,0.55,340.6616615001112,340.6761937998235,340.6761937998235,340.77625539992005,341.1764744995162,341.1764744995162,341.1764744995162,,,341.82901780027896,right,1,,,,,0.6448419000953436,None,,,,,,,,,,,,,,,,,,,,,,,,,,,,,,marigold,1,19,Female,Other,fairly normal,2024-12-04_15h12.46.341,dissANT,2023.2.3,59.94441939026222,2024-12-04 15h19.26.315080 -0600,
centre.png,congLeft.png,left,0,,,,,1,0,1,0,0,8,8,2,341.84334939997643,,,,,,,,,,341.8306614002213,341.84334939997643,342.29316989984363,342.2766412002966,0.45,342.2766567999497,342.29316989984363,342.29316989984363,342.3934923000634,342.7767308000475,342.7767308000475,342.7931805001572,,,343.41269369982183,left,1,,,,,0.623008000664413,None,,,,,,,,,,,,,,,,,,,,,,,,,,,,,,marigold,1,19,Female,Other,fairly normal,2024-12-04_15h12.46.341,dissANT,2023.2.3,59.94441939026222,2024-12-04 15h19.26.315080 -0600,
both.png,congRight.png,left,180,,,,,1,0,1,0,0,9,9,13,343.42643450014293,,,,,,,,,,343.41443879995495,343.42643450014293,343.8263878002763,343.8115473994985,0.4,343.8116087997332,343.8263878002763,343.8263878002763,343.9264127993956,344.3263326995075,344.3263326995075,344.3263326995075,,,344.99542040005326,left,1,,,,,0.6545206997543573,None,,,,,,,,,,,,,,,,,,,,,,,,,,,,,,marigold,1,19,Female,Other,fairly normal,2024-12-04_15h12.46.341,dissANT,2023.2.3,59.94441939026222,2024-12-04 15h19.26.315080 -0600,
blank.png,neutralRight.png,right,0,,,,,1,0,1,0,0,10,10,43,345.00986360013485,,,,,,,,,,344.9968734001741,345.00986360013485,345.5597955994308,345.54352429974824,0.55,345.54355909954756,345.5597955994308,345.5597955994308,345.6598755000159,346.0430979002267,346.0430979002267,346.05975610017776,,,346.69354849960655,right,1,,,,,0.6349321994930506,None,,,,,,,,,,,,,,,,,,,,,,,,,,,,,,marigold,1,19,Female,Other,fairly normal,2024-12-04_15h12.46.341,dissANT,2023.2.3,59.94441939026222,2024-12-04 15h19.26.315080 -0600,
centre.png,neutralLeft.png,left,0,,,,,1,0,1,0,0,11,11,34,346.70988349989057,,,,,,,,,,346.69397049956024,346.70988349989057,347.10955659952015,347.0944085996598,0.4,347.0944624003023,347.10955659952015,347.10955659952015,347.2091330997646,347.60918040014803,347.60918040014803,347.60918040014803,,,348.1294765993953,left,1,,,,,0.5032595992088318,None,,,,,,,,,,,,,,,,,,,,,,,,,,,,,,marigold,1,19,Female,Other,fairly normal,2024-12-04_15h12.46.341,dissANT,2023.2.3,59.94441939026222,2024-12-04 15h19.26.315080 -0600,
centre.png,incongLeft.png,left,0,,,,,1,0,1,0,0,12,12,18,348.14287509955466,,,,,,,,,,348.1309508001432,348.14287509955466,348.6924797995016,348.67630620021373,0.55,348.67632309999317,348.6924797995016,348.6924797995016,348.79239059984684,349.1765358000994,349.1765358000994,349.1931194001809,,,349.72853290010244,left,1,,,,,0.5351559994742274,None,,,,,,,,,,,,,,,,,,,,,,,,,,,,,,marigold,1,19,Female,Other,fairly normal,2024-12-04_15h12.46.341,dissANT,2023.2.3,59.94441939026222,2024-12-04 15h19.26.315080 -0600,
lower.png,congLeft.png,right,180,,,,,1,0,1,0,0,13,13,4,349.743049999699,,,,,,,,,,349.72996969986707,349.743049999699,350.242947999388,350.22693660017103,0.5,350.22697649989277,350.242947999388,350.242947999388,350.34310759976506,350.72631169948727,350.72631169948727,350.74308369960636,,,351.2464314997196,right,1,,,,,0.5041066994890571,None,,,,,,,,,,,,,,,,,,,,,,,,,,,,,,marigold,1,19,Female,Other,fairly normal,2024-12-04_15h12.46.341,dissANT,2023.2.3,59.94441939026222,2024-12-04 15h19.26.315080 -0600,
blank.png,congRight.png,left,180,,,,,1,0,1,0,0,14,14,15,351.2596185002476,,,,,,,,,,351.2483033994213,351.2596185002476,351.70960639975965,351.6947571998462,0.45,351.69481679983437,351.70960639975965,351.70960639975965,351.80913500022143,352.209805900231,352.209805900231,352.209805900231,,,352.82694599963725,left,1,,,,,0.6014585997909307,None,,,,,,,,,,,,,,,,,,,,,,,,,,,,,,marigold,1,19,Female,Other,fairly normal,2024-12-04_15h12.46.341,dissANT,2023.2.3,59.94441939026222,2024-12-04 15h19.26.315080 -0600,
centre.png,congRight.png,left,180,,,,,1,0,1,0,0,15,15,14,352.8431347999722,,,,,,,,,,352.8279357999563,352.8431347999722,353.34281970001757,353.3289604000747,0.5,353.3290430000052,353.34281970001757,353.34281970001757,353.4428997002542,353.8429159000516,353.8429159000516,353.8429159000516,,,354.3285034997389,left,1,,,,,0.48080450017005205,None,,,,,,,,,,,,,,,,,,,,,,,,,,,,,,marigold,1,19,Female,Other,fairly normal,2024-12-04_15h12.46.341,dissANT,2023.2.3,59.94441939026222,2024-12-04 15h19.26.315080 -0600,
blank.png,neutralLeft.png,left,0,,,,,1,0,1,0,0,16,16,35,354.3428574996069,,,,,,,,,,354.3298316001892,354.3428574996069,354.79288749955595,354.77789890021086,0.45,354.77795909997076,354.79288749955595,354.79288749955595,354.8936983998865,355.29230420012027,355.29230420012027,355.29230420012027,,,355.976367299445,left,1,,,,,0.679662000387907,None,,,,,,,,,,,,,,,,,,,,,,,,,,,,,,marigold,1,19,Female,Other,fairly normal,2024-12-04_15h12.46.341,dissANT,2023.2.3,59.94441939026222,2024-12-04 15h19.26.315080 -0600,
both.png,congLeft.png,left,0,,,,,1,0,1,0,0,17,17,1,355.99219859950244,,,,,,,,,,355.97668730001897,355.99219859950244,356.3925713999197,356.37644699960947,0.4,356.3764583002776,356.3925713999197,356.3925713999197,356.4927616994828,356.87588400021195,356.87588400021195,356.89233969990164,,,357.4098394000903,left,1,,,,,0.5255439002066851,None,,,,,,,,,,,,,,,,,,,,,,,,,,,,,,marigold,1,19,Female,Other,fairly normal,2024-12-04_15h12.46.341,dissANT,2023.2.3,59.94441939026222,2024-12-04 15h19.26.315080 -0600,
blank.png,congLeft.png,right,180,,,,,1,0,1,0,0,18,18,7,357.42572339996696,,,,,,,,,,357.4102862002328,357.42572339996696,357.8758838996291,357.8595914999023,0.45,357.8596051996574,357.8758838996291,357.8758838996291,357.9756944999099,358.35882369987667,358.35882369987667,358.3755516996607,,,359.12889140006155,right,1,,,,,0.7628546999767423,None,,,,,,,,,,,,,,,,,,,,,,,,,,,,,,marigold,1,19,Female,Other,fairly normal,2024-12-04_15h12.46.341,dissANT,2023.2.3,59.94441939026222,2024-12-04 15h19.26.315080 -0600,
both.png,neutralLeft.png,right,180,,,,,1,0,1,0,0,19,19,37,359.1428175996989,,,,,,,,,,359.13043759949505,359.1428175996989,359.5426557995379,359.52785000018775,0.4,359.52791019994766,359.5426557995379,359.5426557995379,359.6424591001123,360.0423071999103,360.0423071999103,360.0423071999103,,,360.560322499834,right,1,,,,,0.5031788004562259,None,,,,,,,,,,,,,,,,,,,,,,,,,,,,,,marigold,1,19,Female,Other,fairly normal,2024-12-04_15h12.46.341,dissANT,2023.2.3,59.94441939026222,2024-12-04 15h19.26.315080 -0600,
both.png,incongLeft.png,left,0,,,,,1,0,1,0,0,20,20,17,360.575527000241,,,,,,,,,,360.56132009997964,360.575527000241,361.1258052000776,361.1117196995765,0.55,361.1117939995602,361.1258052000776,361.1258052000776,361.2261952999979,361.62612590007484,361.62612590007484,361.62612590007484,,,362.3781586997211,left,1,,,,,0.7354935994371772,None,,,,,,,,,,,,,,,,,,,,,,,,,,,,,,marigold,1,19,Female,Other,fairly normal,2024-12-04_15h12.46.341,dissANT,2023.2.3,59.94441939026222,2024-12-04 15h19.26.315080 -0600,
lower.png,congRight.png,left,180,,,,,1,0,1,0,0,21,21,12,362.3926379000768,,,,,,,,,,362.3790838997811,362.3926379000768,362.842739299871,362.8275279002264,0.45,362.82758679986,362.842739299871,362.842739299871,362.9425766002387,363.34284930024296,363.34284930024296,363.34284930024296,,,363.9936141995713,left,1,,,,,0.6431727996096015,None,,,,,,,,,,,,,,,,,,,,,,,,,,,,,,marigold,1,19,Female,Other,fairly normal,2024-12-04_15h12.46.341,dissANT,2023.2.3,59.94441939026222,2024-12-04 15h19.26.315080 -0600,
lower.png,incongLeft.png,right,180,,,,,1,0,1,0,0,22,22,20,364.0091832000762,,,,,,,,,,363.99472759943455,364.0091832000762,364.55919940024614,364.5444300994277,0.55,364.54449129942805,364.55919940024614,364.55919940024614,364.65955309942365,365.05889279954135,365.05889279954135,365.05889279954135,,,365.84500129986554,right,1,,,,,0.7811500998213887,None,,,,,,,,,,,,,,,,,,,,,,,,,,,,,,marigold,1,19,Female,Other,fairly normal,2024-12-04_15h12.46.341,dissANT,2023.2.3,59.94441939026222,2024-12-04 15h19.26.315080 -0600,
blank.png,congRight.png,right,0,,,,,1,0,1,0,0,23,23,11,365.85938649997115,,,,,,,,,,365.84653740003705,365.85938649997115,366.4091154001653,366.3948588995263,0.55,366.3949319999665,366.4091154001653,366.4091154001653,366.5096167996526,366.9088273001835,366.9088273001835,366.9088273001835,,,367.5118183000013,right,1,,,,,0.588264400139451,None,,,,,,,,,,,,,,,,,,,,,,,,,,,,,,marigold,1,19,Female,Other,fairly normal,2024-12-04_15h12.46.341,dissANT,2023.2.3,59.94441939026222,2024-12-04 15h19.26.315080 -0600,
centre.png,incongLeft.png,right,180,,,,,1,0,1,0,0,24,24,22,367.5256890999153,,,,,,,,,,367.51294799987227,367.5256890999153,368.0760214002803,368.06082830019295,0.55,368.0608816994354,368.0760214002803,368.0760214002803,368.175822599791,368.57551109977067,368.57551109977067,368.57551109977067,,,369.9458339996636,right,1,,,,,1.3562958994880319,None,,,,,,,,,,,,,,,,,,,,,,,,,,,,,,marigold,1,19,Female,Other,fairly normal,2024-12-04_15h12.46.341,dissANT,2023.2.3,59.94441939026222,2024-12-04 15h19.26.315080 -0600,
upper.png,incongRight.png,right,0,,,,,1,0,1,0,0,25,25,24,369.9588043997064,,,,,,,,,,369.94767950009555,369.9588043997064,370.5091065997258,370.4949762998149,0.55,370.4950494002551,370.5091065997258,370.5091065997258,370.60935840010643,371.0092126997188,371.0092126997188,371.0092126997188,372.7093583000824,372.7093583000824,372.6943355994299,None,0,,,,,,,,,,,,,,,,,,,,,,,,,,,,,,,,,,,,marigold,1,19,Female,Other,fairly normal,2024-12-04_15h12.46.341,dissANT,2023.2.3,59.94441939026222,2024-12-04 15h19.26.315080 -0600,
blank.png,neutralLeft.png,right,180,,,,,1,0,1,0,0,26,26,39,372.7093583000824,,,,,,,,,,372.696090599522,372.7093583000824,373.2088703997433,373.1940602995455,0.5,373.19412439968437,373.2088703997433,373.2088703997433,373.3092732997611,373.7092238999903,373.7092238999903,373.7092238999903,,,374.2924180002883,right,1,,,,,0.5723720006644726,None,,,,,,,,,,,,,,,,,,,,,,,,,,,,,,marigold,1,19,Female,Other,fairly normal,2024-12-04_15h12.46.341,dissANT,2023.2.3,59.94441939026222,2024-12-04 15h19.26.315080 -0600,
both.png,incongRight.png,left,180,,,,,1,0,1,0,0,27,27,29,374.3084615999833,,,,,,,,,,374.2927275002003,374.3084615999833,374.70881989970803,374.6922324998304,0.4,374.69224349968135,374.70881989970803,374.70881989970803,374.8087225994095,375.1919486997649,375.1919486997649,375.2084798999131,,,375.99566319957376,left,1,,,,,0.7888054000213742,None,,,,,,,,,,,,,,,,,,,,,,,,,,,,,,marigold,1,19,Female,Other,fairly normal,2024-12-04_15h12.46.341,dissANT,2023.2.3,59.94441939026222,2024-12-04 15h19.26.315080 -0600,
lower.png,neutralLeft.png,right,180,,,,,1,0,1,0,0,28,28,36,376.00920469965786,,,,,,,,,,375.99773619975895,376.00920469965786,376.4087592996657,376.39214009977877,0.4,376.3921518996358,376.4087592996657,376.4087592996657,376.50851720012724,376.8920954000205,376.8920954000205,376.9083340000361,,,377.42566289938986,right,1,,,,,0.5243011005222797,None,,,,,,,,,,,,,,,,,,,,,,,,,,,,,,marigold,1,19,Female,Other,fairly normal,2024-12-04_15h12.46.341,dissANT,2023.2.3,59.94441939026222,2024-12-04 15h19.26.315080 -0600,
centre.png,neutralRight.png,right,0,,,,,1,0,1,0,0,29,29,42,377.44190960004926,,,,,,,,,,377.42591849993914,377.44190960004926,377.89224279951304,377.8777721999213,0.45,377.87784510012716,377.89224279951304,377.89224279951304,377.9923328002915,378.39256250020117,378.39256250020117,378.39256250020117,,,379.1614696001634,right,1,,,,,0.7594198994338512,None,,,,,,,,,,,,,,,,,,,,,,,,,,,,,,marigold,1,19,Female,Other,fairly normal,2024-12-04_15h12.46.341,dissANT,2023.2.3,59.94441939026222,2024-12-04 15h19.26.315080 -0600,
upper.png,incongLeft.png,left,0,,,,,1,0,1,0,0,30,30,16,379.1756630996242,,,,,,,,,,379.16293360013515,379.1756630996242,379.6254955995828,379.61068869940937,0.45,379.6107478002086,379.6254955995828,379.6254955995828,379.7256247000769,380.1250121993944,380.1250121993944,380.1250121993944,,,380.7780291000381,left,1,,,,,0.6473043998703361,None,,,,,,,,,,,,,,,,,,,,,,,,,,,,,,marigold,1,19,Female,Other,fairly normal,2024-12-04_15h12.46.341,dissANT,2023.2.3,59.94441939026222,2024-12-04 15h19.26.315080 -0600,
both.png,neutralRight.png,left,180,,,,,1,0,1,0,0,31,31,45,380.7921719001606,,,,,,,,,,380.77941900026053,380.7921719001606,381.2921564998105,381.2769408999011,0.5,381.27698040008545,381.2921564998105,381.2921564998105,381.39245169982314,381.7928668996319,381.7928668996319,381.7928668996319,,,382.4109944002703,left,1,,,,,0.6014203997328877,None,,,,,,,,,,,,,,,,,,,,,,,,,,,,,,marigold,1,19,Female,Other,fairly normal,2024-12-04_15h12.46.341,dissANT,2023.2.3,59.94441939026222,2024-12-04 15h19.26.315080 -0600,
blank.png,incongLeft.png,left,0,,,,,1,0,1,0,0,32,32,19,382.4254645993933,,,,,,,,,,382.41187969967723,382.4254645993933,382.9254959002137,382.9108370002359,0.5,382.910901799798,382.9254959002137,382.9254959002137,383.0256059002131,383.42570669949055,383.42570669949055,383.42570669949055,,,384.24517309945077,left,1,,,,,0.8055831994861364,None,,,,,,,,,,,,,,,,,,,,,,,,,,,,,,marigold,1,19,Female,Other,fairly normal,2024-12-04_15h12.46.341,dissANT,2023.2.3,59.94441939026222,2024-12-04 15h19.26.315080 -0600,
both.png,neutralRight.png,right,0,,,,,1,0,1,0,0,33,33,41,384.2587580997497,,,,,,,,,,384.24681479949504,384.2587580997497,384.80886809993535,384.79398570023477,0.55,384.79405049979687,384.80886809993535,384.80886809993535,384.90888400003314,385.3088397998363,385.3088397998363,385.3088397998363,,,385.89527119975537,right,1,,,,,0.5836055995896459,None,,,,,,,,,,,,,,,,,,,,,,,,,,,,,,marigold,1,19,Female,Other,fairly normal,2024-12-04_15h12.46.341,dissANT,2023.2.3,59.94441939026222,2024-12-04 15h19.26.315080 -0600,
both.png,neutralLeft.png,left,0,,,,,1,0,1,0,0,34,34,33,385.90873789973557,,,,,,,,,,385.8970425995067,385.90873789973557,386.45885429996997,386.4438312994316,0.55,386.4438908994198,386.45885429996997,386.45885429996997,386.5589264994487,386.95897199958563,386.95897199958563,386.95897199958563,,,387.5422575995326,left,1,,,,,0.577641099691391,None,,,,,,,,,,,,,,,,,,,,,,,,,,,,,,marigold,1,19,Female,Other,fairly normal,2024-12-04_15h12.46.341,dissANT,2023.2.3,59.94441939026222,2024-12-04 15h19.26.315080 -0600,
centre.png,congRight.png,right,0,,,,,1,0,1,0,0,35,35,10,387.5582096995786,,,,,,,,,,387.5425495998934,387.5582096995786,387.9796529999003,387.94175320025533,0.4,387.94176340010017,387.9796529999003,387.9796529999003,388.0914743999019,388.4415018996224,388.4415018996224,388.49149869941175,,,388.9769545001909,right,1,,,,,0.5187363997101784,None,,,,,,,,,,,,,,,,,,,,,,,,,,,,,,marigold,1,19,Female,Other,fairly normal,2024-12-04_15h12.46.341,dissANT,2023.2.3,59.94441939026222,2024-12-04 15h19.26.315080 -0600,
centre.png,congLeft.png,right,180,,,,,1,0,1,0,0,36,36,6,388.9920659996569,,,,,,,,,,388.978277599439,388.9920659996569,389.5423369994387,389.5262923995033,0.55,389.5263128001243,389.5423369994387,389.5423369994387,389.6421606997028,390.02549020014703,390.02549020014703,390.04217620007694,,,390.62891279999167,right,1,,,,,0.5948892999440432,None,,,,,,,,,,,,,,,,,,,,,,,,,,,,,,marigold,1,19,Female,Other,fairly normal,2024-12-04_15h12.46.341,dissANT,2023.2.3,59.94441939026222,2024-12-04 15h19.26.315080 -0600,
both.png,incongLeft.png,right,180,,,,,1,0,1,0,0,37,37,21,390.6419917996973,,,,,,,,,,390.6303145000711,390.6419917996973,391.19188239984214,391.1774811996147,0.55,391.177555100061,391.19188239984214,391.19188239984214,391.2921126000583,391.6922536995262,391.6922536995262,391.6922536995262,,,392.44493080023676,right,1,,,,,0.7499746000394225,None,,,,,,,,,,,,,,,,,,,,,,,,,,,,,,marigold,1,19,Female,Other,fairly normal,2024-12-04_15h12.46.341,dissANT,2023.2.3,59.94441939026222,2024-12-04 15h19.26.315080 -0600,
upper.png,congLeft.png,left,0,,,,,1,0,1,0,0,38,38,0,392.4584633000195,,,,,,,,,,392.4461861997843,392.4584633000195,393.00884320028126,392.9929091995582,0.55,392.9929476995021,393.00884320028126,393.00884320028126,393.1087675001472,393.49209289997816,393.49209289997816,393.50850680004805,,,393.9952432997525,left,1,,,,,0.4874215992167592,None,,,,,,,,,,,,,,,,,,,,,,,,,,,,,,marigold,1,19,Female,Other,fairly normal,2024-12-04_15h12.46.341,dissANT,2023.2.3,59.94441939026222,2024-12-04 15h19.26.315080 -0600,
centre.png,neutralRight.png,left,180,,,,,1,0,1,0,0,39,39,46,394.0083866994828,,,,,,,,,,393.99654619954526,394.0083866994828,394.4584315996617,394.4435315998271,0.45,394.4435863001272,394.4584315996617,394.4584315996617,394.55845279991627,394.95872589945793,394.95872589945793,394.95872589945793,,,395.4283278994262,left,1,,,,,0.4517187001183629,None,,,,,,,,,,,,,,,,,,,,,,,,,,,,,,marigold,1,19,Female,Other,fairly normal,2024-12-04_15h12.46.341,dissANT,2023.2.3,59.94441939026222,2024-12-04 15h19.26.315080 -0600,
upper.png,congRight.png,right,0,,,,,1,0,1,0,0,40,40,8,395.4420438995585,,,,,,,,,,395.43010429944843,395.4420438995585,395.9418152002618,395.92748679965734,0.5,395.9275687998161,395.9418152002618,395.9418152002618,396.0420290995389,396.4419387001544,396.4419387001544,396.4419387001544,,,397.1777595002204,right,1,,,,,0.7233531000092626,None,,,,,,,,,,,,,,,,,,,,,,,,,,,,,,marigold,1,19,Female,Other,fairly normal,2024-12-04_15h12.46.341,dissANT,2023.2.3,59.94441939026222,2024-12-04 15h19.26.315080 -0600,
both.png,congRight.png,right,0,,,,,1,0,1,0,0,41,41,9,397.1919441996142,,,,,,,,,,397.17933429963887,397.1919441996142,397.69197059981525,397.67734429985285,0.5,397.6774142999202,397.69197059981525,397.69197059981525,397.7919145002961,398.1921069994569,398.1921069994569,398.1921069994569,,,398.74494239967316,right,1,,,,,0.5491513004526496,None,,,,,,,,,,,,,,,,,,,,,,,,,,,,,,marigold,1,19,Female,Other,fairly normal,2024-12-04_15h12.46.341,dissANT,2023.2.3,59.94441939026222,2024-12-04 15h19.26.315080 -0600,
blank.png,incongRight.png,right,0,,,,,1,0,1,0,0,42,42,27,398.7584071997553,,,,,,,,,,398.74649340007454,398.7584071997553,399.20845349971205,399.19395179953426,0.45,399.19402399938554,399.20845349971205,399.20845349971205,399.3086610995233,399.7086814995855,399.7086814995855,399.7086814995855,,,400.4444509996101,right,1,,,,,0.7242069998756051,None,,,,,,,,,,,,,,,,,,,,,,,,,,,,,,marigold,1,19,Female,Other,fairly normal,2024-12-04_15h12.46.341,dissANT,2023.2.3,59.94441939026222,2024-12-04 15h19.26.315080 -0600,
upper.png,neutralRight.png,right,0,,,,,1,0,1,0,0,43,43,40,400.4580349996686,,,,,,,,,,400.44604029972106,400.4580349996686,401.0084907999262,400.9937201999128,0.55,400.9937840998173,401.0084907999262,401.0084907999262,401.108842600137,401.5087847998366,401.5087847998366,401.5087847998366,,,402.02726159989834,right,1,,,,,0.5138907004147768,None,,,,,,,,,,,,,,,,,,,,,,,,,,,,,,marigold,1,19,Female,Other,fairly normal,2024-12-04_15h12.46.341,dissANT,2023.2.3,59.94441939026222,2024-12-04 15h19.26.315080 -0600,
blank.png,congLeft.png,left,0,,,,,1,0,1,0,0,44,44,3,402.0418024994433,,,,,,,,,,402.028643200174,402.0418024994433,402.5918603995815,402.5767188994214,0.55,402.57677670009434,402.5918603995815,402.5918603995815,402.69192759972066,403.0919222999364,403.0919222999364,403.0919222999364,,,403.6101434994489,left,1,,,,,0.5132314004004002,None,,,,,,,,,,,,,,,,,,,,,,,,,,,,,,marigold,1,19,Female,Other,fairly normal,2024-12-04_15h12.46.341,dissANT,2023.2.3,59.94441939026222,2024-12-04 15h19.26.315080 -0600,
centre.png,neutralLeft.png,right,180,,,,,1,0,1,0,0,45,45,38,403.6245799995959,,,,,,,,,,403.6114496998489,403.6245799995959,404.07495019957423,404.0610123993829,0.45,404.06109239999205,404.07495019957423,404.07495019957423,404.17520060017705,404.57500240020454,404.57500240020454,404.57500240020454,,,405.1611933996901,right,1,,,,,0.5834529995918274,None,,,,,,,,,,,,,,,,,,,,,,,,,,,,,,marigold,1,19,Female,Other,fairly normal,2024-12-04_15h12.46.341,dissANT,2023.2.3,59.94441939026222,2024-12-04 15h19.26.315080 -0600,
lower.png,neutralRight.png,left,180,,,,,1,0,1,0,0,46,46,44,405.1750726001337,,,,,,,,,,405.1624700995162,405.1750726001337,405.67495290003717,405.6604223996401,0.5,405.6605046996847,405.67495290003717,405.67495290003717,405.77500519994646,406.1750997994095,406.1750997994095,406.1750997994095,,,406.5772152002901,left,1,,,,,0.3922519003972411,None,,,,,,,,,,,,,,,,,,,,,,,,,,,,,,marigold,1,19,Female,Other,fairly normal,2024-12-04_15h12.46.341,dissANT,2023.2.3,59.94441939026222,2024-12-04 15h19.26.315080 -0600,
blank.png,incongRight.png,left,180,,,,,1,0,1,0,0,47,47,31,406.59164209943265,,,,,,,,,,406.57877040002495,406.59164209943265,407.14123999979347,407.1263029994443,0.55,407.12637219950557,407.14123999979347,407.14123999979347,407.24170549958944,407.6416696999222,407.6416696999222,407.6416696999222,,,408.4443015996367,left,1,,,,,0.7960617998614907,None,,,,,,,,,,,,,,,,,,,,,,,,,,,,,,marigold,1,19,Female,Other,fairly normal,2024-12-04_15h12.46.341,dissANT,2023.2.3,59.94441939026222,2024-12-04 15h19.26.315080 -0600,
centre.png,incongRight.png,left,180,,,,,1,0,1,0,1,0,48,30,408.4582866001874,,,,,,,,,,408.4457825999707,408.4582866001874,408.95778399985284,408.9412679998204,0.5,408.94127990026027,408.95778399985284,408.95778399985284,409.058447400108,409.44180309958756,409.44180309958756,409.4583195997402,,,410.19452919997275,left,1,,,,,0.7482144003733993,None,,,,,,,,,,,,,,,,,,,,,,,,,,,,,,marigold,1,19,Female,Other,fairly normal,2024-12-04_15h12.46.341,dissANT,2023.2.3,59.94441939026222,2024-12-04 15h19.26.315080 -0600,
centre.png,congRight.png,right,0,,,,,1,0,1,0,1,1,49,10,410.2084102993831,,,,,,,,,,410.19619360007346,410.2084102993831,410.758227000013,410.74374630022794,0.55,410.74381660018116,410.758227000013,410.758227000013,410.85823060013354,411.2582131996751,411.2582131996751,411.2582131996751,,,411.810569900088,right,1,,,,,0.5461579002439976,None,,,,,,,,,,,,,,,,,,,,,,,,,,,,,,marigold,1,19,Female,Other,fairly normal,2024-12-04_15h12.46.341,dissANT,2023.2.3,59.94441939026222,2024-12-04 15h19.26.315080 -0600,
centre.png,incongLeft.png,left,0,,,,,1,0,1,0,1,2,50,18,411.82488679978997,,,,,,,,,,411.8119011996314,411.82488679978997,412.32484500017017,412.30920189991593,0.5,412.3092569001019,412.32484500017017,412.32484500017017,412.4245373001322,412.82492109946907,412.82492109946907,412.82492109946907,,,413.4776234002784,left,1,,,,,0.6407324997708201,None,,,,,,,,,,,,,,,,,,,,,,,,,,,,,,marigold,1,19,Female,Other,fairly normal,2024-12-04_15h12.46.341,dissANT,2023.2.3,59.94441939026222,2024-12-04 15h19.26.315080 -0600,
lower.png,incongLeft.png,right,180,,,,,1,0,1,0,1,3,51,20,413.4915410997346,,,,,,,,,,413.4794726995751,413.4915410997346,413.94093589950353,413.92461510002613,0.45,413.9246308002621,413.94093589950353,413.94093589950353,414.04126119986176,414.4249040996656,414.4249040996656,414.4416389996186,,,415.29526850022376,right,1,,,,,0.865404199808836,None,,,,,,,,,,,,,,,,,,,,,,,,,,,,,,marigold,1,19,Female,Other,fairly normal,2024-12-04_15h12.46.341,dissANT,2023.2.3,59.94441939026222,2024-12-04 15h19.26.315080 -0600,
upper.png,neutralRight.png,right,0,,,,,1,0,1,0,1,4,52,40,415.30793539993465,,,,,,,,,,415.2973283994943,415.30793539993465,415.7079897997901,415.6938845003024,0.4,415.69395720027387,415.7079897997901,415.7079897997901,415.80807329993695,416.2077369997278,416.2077369997278,416.2077369997278,,,416.7938278997317,right,1,,,,,0.5820377999916673,None,,,,,,,,,,,,,,,,,,,,,,,,,,,,,,marigold,1,19,Female,Other,fairly normal,2024-12-04_15h12.46.341,dissANT,2023.2.3,59.94441939026222,2024-12-04 15h19.26.315080 -0600,
both.png,neutralLeft.png,left,0,,,,,1,0,1,0,1,5,53,33,416.8084637997672,,,,,,,,,,416.79478789959103,416.8084637997672,417.25794279947877,417.24386420007795,0.45,417.2439367994666,417.25794279947877,417.25794279947877,417.35814249981195,417.757552199997,417.757552199997,417.757552199997,,,418.21232969965786,left,1,,,,,0.45108550041913986,None,,,,,,,,,,,,,,,,,,,,,,,,,,,,,,marigold,1,19,Female,Other,fairly normal,2024-12-04_15h12.46.341,dissANT,2023.2.3,59.94441939026222,2024-12-04 15h19.26.315080 -0600,
centre.png,neutralLeft.png,right,180,,,,,1,0,1,0,1,6,54,38,418.2247375994921,,,,,,,,,,418.21422559954226,418.2247375994921,418.77459689974785,418.75873530004174,0.55,418.7587732998654,418.77459689974785,418.77459689974785,418.87464969977736,419.25770699977875,419.25770699977875,419.2745848996565,,,419.8286961996928,right,1,,,,,0.5669801998883486,None,,,,,,,,,,,,,,,,,,,,,,,,,,,,,,marigold,1,19,Female,Other,fairly normal,2024-12-04_15h12.46.341,dissANT,2023.2.3,59.94441939026222,2024-12-04 15h19.26.315080 -0600,
blank.png,incongLeft.png,left,0,,,,,1,0,1,0,1,7,55,19,419.84130600001663,,,,,,,,,,419.830580400303,419.84130600001663,420.2912344997749,420.2766664000228,0.45,420.2767378995195,420.2912344997749,420.2912344997749,420.391378399916,420.79159170016646,420.79159170016646,420.79159170016646,,,421.67746799997985,left,1,,,,,0.8798054000362754,None,,,,,,,,,,,,,,,,,,,,,,,,,,,,,,marigold,1,19,Female,Other,fairly normal,2024-12-04_15h12.46.341,dissANT,2023.2.3,59.94441939026222,2024-12-04 15h19.26.315080 -0600,
both.png,neutralLeft.png,right,180,,,,,1,0,1,0,1,8,56,37,421.6914251996204,,,,,,,,,,421.6789432996884,421.6914251996204,422.2413534000516,422.2266410002485,0.55,422.22671320009977,422.2413534000516,422.2413534000516,422.3416120996699,422.7415440995246,422.7415440995246,422.7415440995246,,,423.21097780019045,right,1,,,,,0.46455749962478876,None,,,,,,,,,,,,,,,,,,,,,,,,,,,,,,marigold,1,19,Female,Other,fairly normal,2024-12-04_15h12.46.341,dissANT,2023.2.3,59.94441939026222,2024-12-04 15h19.26.315080 -0600,
both.png,congRight.png,left,180,,,,,1,0,1,0,1,9,57,13,423.2247084993869,,,,,,,,,,423.21269570011646,423.2247084993869,423.77443560026586,423.75955899991095,0.55,423.75961839966476,423.77443560026586,423.77443560026586,423.8747717002407,424.27426309976727,424.27426309976727,424.27426309976727,,,425.0103853996843,left,1,,,,,0.7322880998253822,None,,,,,,,,,,,,,,,,,,,,,,,,,,,,,,marigold,1,19,Female,Other,fairly normal,2024-12-04_15h12.46.341,dissANT,2023.2.3,59.94441939026222,2024-12-04 15h19.26.315080 -0600,
both.png,incongLeft.png,right,180,,,,,1,0,1,0,1,10,58,21,425.0243370998651,,,,,,,,,,425.0118483994156,425.0243370998651,425.42450360022485,425.41004360001534,0.4,425.4101099995896,425.42450360022485,425.42450360022485,425.5246636001393,425.92453920003027,425.92453920003027,425.92453920003027,,,426.62777149956673,right,1,,,,,0.6911238003522158,None,,,,,,,,,,,,,,,,,,,,,,,,,,,,,,marigold,1,19,Female,Other,fairly normal,2024-12-04_15h12.46.341,dissANT,2023.2.3,59.94441939026222,2024-12-04 15h19.26.315080 -0600,
both.png,incongRight.png,right,0,,,,,1,0,1,0,1,11,59,25,426.64071469940245,,,,,,,,,,426.6296274997294,426.64071469940245,427.19113699998707,427.17608479969203,0.55,427.1761443996802,427.19113699998707,427.19113699998707,427.29115669988096,427.69057819992304,427.69057819992304,427.69057819992304,,,428.26072600018233,left,0,,,,,0.5639031995087862,None,,,,,,,,,,,,,,,,,,,,,,,,,,,,,,marigold,1,19,Female,Other,fairly normal,2024-12-04_15h12.46.341,dissANT,2023.2.3,59.94441939026222,2024-12-04 15h19.26.315080 -0600,
blank.png,neutralLeft.png,right,180,,,,,1,0,1,0,1,12,60,39,428.27457229979336,,,,,,,,,,428.26227129995823,428.27457229979336,428.82426329981536,428.8095677997917,0.55,428.80963709950447,428.82426329981536,428.82426329981536,428.92439949978143,429.3243883000687,429.3243883000687,429.3243883000687,,,429.89336130023,right,1,,,,,0.5589770004153252,None,,,,,,,,,,,,,,,,,,,,,,,,,,,,,,marigold,1,19,Female,Other,fairly normal,2024-12-04_15h12.46.341,dissANT,2023.2.3,59.94441939026222,2024-12-04 15h19.26.315080 -0600,
blank.png,incongRight.png,left,180,,,,,1,0,1,0,1,13,61,31,429.90781859960407,,,,,,,,,,429.8948075994849,429.90781859960407,430.45768340025097,430.44296929985285,0.55,430.44303360022604,430.45768340025097,430.45768340025097,430.5579524002969,430.9580128993839,430.9580128993839,430.9580128993839,,,431.47764119971544,left,1,,,,,0.5162846008315682,None,,,,,,,,,,,,,,,,,,,,,,,,,,,,,,marigold,1,19,Female,Other,fairly normal,2024-12-04_15h12.46.341,dissANT,2023.2.3,59.94441939026222,2024-12-04 15h19.26.315080 -0600,
both.png,congRight.png,right,0,,,,,1,0,1,0,1,14,62,9,431.4911067998037,,,,,,,,,,431.4789434997365,431.4911067998037,432.0410469993949,432.02652159985155,0.55,432.02659009955823,432.0410469993949,432.0410469993949,432.14115170016885,432.5411812001839,432.5411812001839,432.5411812001839,,,433.14391259942204,right,1,,,,,0.5852534994482994,None,,,,,,,,,,,,,,,,,,,,,,,,,,,,,,marigold,1,19,Female,Other,fairly normal,2024-12-04_15h12.46.341,dissANT,2023.2.3,59.94441939026222,2024-12-04 15h19.26.315080 -0600,
lower.png,neutralLeft.png,right,180,,,,,1,0,1,0,1,15,63,36,433.157663599588,,,,,,,,,,433.1447622999549,433.157663599588,433.5578991994262,433.5427665999159,0.4,433.5428202999756,433.5578991994262,433.5578991994262,433.65799359977245,434.0579009000212,434.0579009000212,434.0579009000212,,,434.6766198994592,right,1,,,,,0.6033257003873587,None,,,,,,,,,,,,,,,,,,,,,,,,,,,,,,marigold,1,19,Female,Other,fairly normal,2024-12-04_15h12.46.341,dissANT,2023.2.3,59.94441939026222,2024-12-04 15h19.26.315080 -0600,
upper.png,neutralLeft.png,left,0,,,,,1,0,1,0,1,16,64,32,434.69112689979374,,,,,,,,,,434.678054199554,434.69112689979374,435.0910991001874,435.0768420994282,0.4,435.0769147993997,435.0910991001874,435.0910991001874,435.190660700202,435.59113099984825,435.59113099984825,435.59113099984825,,,436.14379019942135,left,1,,,,,0.5464021004736423,None,,,,,,,,,,,,,,,,,,,,,,,,,,,,,,marigold,1,19,Female,Other,fairly normal,2024-12-04_15h12.46.341,dissANT,2023.2.3,59.94441939026222,2024-12-04 15h19.26.315080 -0600,
centre.png,neutralRight.png,left,180,,,,,1,0,1,0,1,17,65,46,436.15755010023713,,,,,,,,,,436.14536600001156,436.15755010023713,436.70730550028384,436.69178599957377,0.55,436.69182300008833,436.70730550028384,436.70730550028384,436.8077696999535,437.1905763996765,437.1905763996765,437.2072874000296,,,437.710268500261,left,1,,,,,0.5023336997255683,None,,,,,,,,,,,,,,,,,,,,,,,,,,,,,,marigold,1,19,Female,Other,fairly normal,2024-12-04_15h12.46.341,dissANT,2023.2.3,59.94441939026222,2024-12-04 15h19.26.315080 -0600,
blank.png,neutralRight.png,right,0,,,,,1,0,1,0,1,18,66,43,437.7240810999647,,,,,,,,,,437.71190269943327,437.7240810999647,438.22429179959,438.20991139952093,0.5,438.2099859993905,438.22429179959,438.22429179959,438.3242504997179,438.7246065000072,438.7246065000072,438.7246065000072,,,439.2277806997299,right,1,,,,,0.5001341998577118,None,,,,,,,,,,,,,,,,,,,,,,,,,,,,,,marigold,1,19,Female,Other,fairly normal,2024-12-04_15h12.46.341,dissANT,2023.2.3,59.94441939026222,2024-12-04 15h19.26.315080 -0600,
both.png,neutralRight.png,right,0,,,,,1,0,1,0,1,19,67,41,439.24051169957966,,,,,,,,,,439.2292184000835,439.24051169957966,439.6904205996543,439.6741432994604,0.45,439.67416969966143,439.6904205996543,439.6904205996543,439.79083369951695,440.17364680022,440.17364680022,440.1902302997187,,,440.6577268000692,right,1,,,,,0.47299860045313835,None,,,,,,,,,,,,,,,,,,,,,,,,,,,,,,marigold,1,19,Female,Other,fairly normal,2024-12-04_15h12.46.341,dissANT,2023.2.3,59.94441939026222,2024-12-04 15h19.26.315080 -0600,
