cue,tar,corrAns,targOrientation,pracLoop.thisRepN,pracLoop.thisTrialN,pracLoop.thisN,pracLoop.thisIndex,blockLoop.thisRepN,blockLoop.thisTrialN,blockLoop.thisN,blockLoop.thisIndex,mainLoop.thisRepN,mainLoop.thisTrialN,mainLoop.thisN,mainLoop.thisIndex,thisRow.t,notes,PracInstruc.started,pracText1.started,pracResp1.started,PracInstruc.stopped,PracInstruct2.started,practInst2.started,practResp2.started,PracInstruct2.stopped,fixation.started,image.started,image.stopped,fixation.stopped,fixFuration,trial.started,cues.started,fixationshort.started,cues.stopped,target.started,resp.started,fixationshort.stopped,trial.stopped,resp.keys,resp.corr,resp.rt,resp.duration,feedback.started,text.started,feedback.stopped,text.stopped,MainInstruc.started,mainInst.started,instResp.started,MainInstruc.stopped,instResp.keys,instResp.rt,instResp.duration,Rest.started,rest.started,restResp.started,Rest.stopped,MentalFatigue.started,FatigueQ.started,textbox.started,FatigueEnd.started,EndClick.started,MentalFatigue.stopped,textbox.text,EndClick.x,EndClick.y,EndClick.leftButton,EndClick.midButton,EndClick.rightButton,EndClick.time,EndClick.clicked_name,End.started,endText.started,endKey.started,End.stopped,participant,week,age,gender,race/ethnicity,cognitive health history,date,expName,psychopyVersion,frameRate,expStart,
upper.png,incongLeft.png,left,0,0,0,0,16,,,,,,,,,53.77858239971101,,0.001566300168633461,0.003998899832367897,0.003998899832367897,20.290108599700034,20.290164199657738,20.323234899900854,20.323234899900854,53.738539800047874,53.76149970013648,53.77858239971101,54.186047499999404,54.170937299728394,0.4,54.17099819984287,54.186047499999404,54.186047499999404,54.28607739973813,54.68643390014768,54.68643390014768,54.68643390014768,55.95307970046997,left,1,1.2565746000036597,None,55.955400300212204,55.97356230020523,56.96982560027391,,,,,,,,,,,,,,,,,,,,,,,,,,,,,,,Prism,1,32,Female,White,,2024-12-05_09h42.30.202,dissANT,2023.2.3,59.79845536642999,2024-12-05 09h48.45.939179 -0600,
centre.png,congLeft.png,left,0,0,1,1,2,,,,,,,,,56.98612350039184,,,,,,,,,,56.97087830025703,56.98612350039184,57.48604900017381,57.47060540039092,0.5,57.47066309954971,57.48604900017381,57.48604900017381,57.58609910029918,57.98612949997187,57.98612949997187,57.98612949997187,58.9391898997128,left,1,0.9467208003625274,None,58.94024689961225,58.95606950018555,59.95307570043951,,,,,,,,,,,,,,,,,,,,,,,,,,,,,,,Prism,1,32,Female,White,,2024-12-05_09h42.30.202,dissANT,2023.2.3,59.79845536642999,2024-12-05 09h48.45.939179 -0600,
both.png,incongLeft.png,left,0,0,2,2,17,,,,,,,,,59.969026000238955,,,,,,,,,,59.95428770035505,59.969026000238955,60.469329100102186,60.454024099744856,0.5,60.45407900027931,60.469329100102186,60.469329100102186,60.56944950018078,60.969369100406766,60.969369100406766,60.969369100406766,61.78850849997252,left,1,0.8075858000665903,None,61.78974589984864,61.803155899979174,62.80202259961516,,,,,,,,,,,,,,,,,,,,,,,,,,,,,,,Prism,1,32,Female,White,,2024-12-05_09h42.30.202,dissANT,2023.2.3,59.79845536642999,2024-12-05 09h48.45.939179 -0600,
both.png,incongLeft.png,right,180,0,3,3,21,,,,,,,,,62.819161700084805,,,,,,,,,,62.80228970013559,62.819161700084805,63.21919270046055,63.20341570023447,0.4,63.20346019975841,63.21919270046055,63.21919270046055,63.31956500001252,63.70264059957117,63.70264059957117,63.71950509957969,64.5890899002552,right,1,0.8680970007553697,None,64.59036589972675,64.60305790044367,65.58759909961373,65.60235789977014,,,,,,,,,,,,,,,,,,,,,,,,,,,,,,Prism,1,32,Female,White,,2024-12-05_09h42.30.202,dissANT,2023.2.3,59.79845536642999,2024-12-05 09h48.45.939179 -0600,
centre.png,incongLeft.png,right,180,0,4,4,22,,,,,,,,,65.60235789977014,,,,,,,,,,65.58871310018003,65.60235789977014,66.10239010024816,66.08785029966384,0.5,66.08792429976165,66.10239010024816,66.10239010024816,66.20243159960955,66.60250919964164,66.60250919964164,66.60250919964164,67.30244550015777,right,1,0.6960013005882502,None,67.30278620030731,67.3186782002449,68.30323559977114,68.31932749971747,,,,,,,,,,,,,,,,,,,,,,,,,,,,,,Prism,1,32,Female,White,,2024-12-05_09h42.30.202,dissANT,2023.2.3,59.79845536642999,2024-12-05 09h48.45.939179 -0600,
centre.png,congRight.png,right,0,0,5,5,10,,,,,,,,,68.31932749971747,,,,,,,,,,68.3039800003171,68.31932749971747,68.71918539982289,68.70385569985956,0.4,68.70392279978842,68.71918539982289,68.71918539982289,68.8193693999201,69.21913450025022,69.21913450025022,69.21913450025022,69.8545799003914,right,1,0.6254179002717137,None,69.85554669983685,69.86855669971555,70.85388450045139,70.86933500040323,,,,,,,,,,,,,,,,,,,,,,,,,,,,,,Prism,1,32,Female,White,,2024-12-05_09h42.30.202,dissANT,2023.2.3,59.79845536642999,2024-12-05 09h48.45.939179 -0600,
centre.png,incongLeft.png,left,0,0,6,6,18,,,,,,,,,70.86933500040323,,,,,,,,,,70.85487130004913,70.86933500040323,71.36876589991152,71.35321099963039,0.5,71.35325589962304,71.36876589991152,71.36876589991152,71.4694039998576,71.85255310032517,71.85255310032517,71.86916320025921,72.45455349981785,left,1,0.5994998002424836,None,72.45505489967763,72.46888010017574,73.45406330004334,73.46907669957727,,,,,,,,,,,,,,,,,,,,,,,,,,,,,,Prism,1,32,Female,White,,2024-12-05_09h42.30.202,dissANT,2023.2.3,59.79845536642999,2024-12-05 09h48.45.939179 -0600,
blank.png,incongLeft.png,right,180,0,7,7,23,,,,,,,,,73.46907669957727,,,,,,,,,,73.45507869962603,73.46907669957727,73.86913270037621,73.85394870024174,0.4,73.85400419961661,73.86913270037621,73.86913270037621,73.96894580032676,74.36924680043012,74.36924680043012,74.36924680043012,75.22051279991865,right,1,0.8397557996213436,None,75.22133969981223,75.23526440002024,76.21980059985071,76.23577270004898,,,,,,,,,,,,,,,,,,,,,,,,,,,,,,Prism,1,32,Female,White,,2024-12-05_09h42.30.202,dissANT,2023.2.3,59.79845536642999,2024-12-05 09h48.45.939179 -0600,
both.png,congRight.png,right,0,0,8,8,9,,,,,,,,,76.23577270004898,,,,,,,,,,76.22042660042644,76.23577270004898,76.78542739991099,76.77039409987628,0.55,76.77047040034086,76.78542739991099,76.78542739991099,76.8852265002206,77.28557339962572,77.28557339962572,77.28557339962572,78.00407269969583,right,1,0.7140386002138257,None,78.004981899634,78.01867750007659,79.00379160046577,79.01896269991994,,,,,,,,,,,,,,,,,,,,,,,,,,,,,,Prism,1,32,Female,White,,2024-12-05_09h42.30.202,dissANT,2023.2.3,59.79845536642999,2024-12-05 09h48.45.939179 -0600,
lower.png,congRight.png,left,180,0,9,9,12,,,,,,,,,79.01896269991994,,,,,,,,,,79.0046747000888,79.01896269991994,79.46883300039917,79.45375800039619,0.45,79.45381790027022,79.46883300039917,79.46883300039917,79.5691015003249,79.96902499999851,79.96902499999851,79.96902499999851,80.63829599972814,left,1,0.6628248998895288,None,80.63940120022744,80.65185889974236,81.63700039964169,81.6521778004244,,,,,,,,,,,,,,,,,,,,,,,,,,,,,,Prism,1,32,Female,White,,2024-12-05_09h42.30.202,dissANT,2023.2.3,59.79845536642999,2024-12-05 09h48.45.939179 -0600,
both.png,congLeft.png,left,0,0,10,10,1,,,,,,,,,81.6521778004244,,,,,,,,,,81.63785879965872,81.6521778004244,82.05197839997709,82.0370346000418,0.4,82.03709909971803,82.05197839997709,82.05197839997709,82.15198499988765,82.5521443001926,82.5521443001926,82.5521443001926,83.07238799985498,left,1,0.516899099573493,None,83.07349350024015,83.08506750036031,84.07030479982495,84.0856274003163,,,,,,,,,,,,,,,,,,,,,,,,,,,,,,Prism,1,32,Female,White,,2024-12-05_09h42.30.202,dissANT,2023.2.3,59.79845536642999,2024-12-05 09h48.45.939179 -0600,
blank.png,congLeft.png,left,0,0,11,11,3,,,,,,,,,84.0856274003163,,,,,,,,,,84.07115549966693,84.0856274003163,84.48549470026046,84.4707850003615,0.4,84.47085160017014,84.48549470026046,84.48549470026046,84.58566439989954,84.98519430030137,84.98519430030137,84.98519430030137,85.68629159964621,left,1,0.6890593999996781,None,85.68698619958013,85.70175699982792,86.6875066999346,86.70200890023261,,,,,,,,,,,,,,,,,,,,,,,,,,,,,,Prism,1,32,Female,White,,2024-12-05_09h42.30.202,dissANT,2023.2.3,59.79845536642999,2024-12-05 09h48.45.939179 -0600,
lower.png,incongLeft.png,right,180,0,12,12,20,,,,,,,,,86.70200890023261,,,,,,,,,,86.68855150043964,86.70200890023261,87.10207279957831,87.08707190025598,0.4,87.08713290002197,87.10207279957831,87.10207279957831,87.20209669973701,87.60225730016828,87.60225730016828,87.60225730016828,88.38710249960423,right,1,0.7745083002373576,None,88.38805089984089,88.40176650043577,89.38715109974146,89.40222750045359,,,,,,,,,,,,,,,,,,,,,,,,,,,,,,Prism,1,32,Female,White,,2024-12-05_09h42.30.202,dissANT,2023.2.3,59.79845536642999,2024-12-05 09h48.45.939179 -0600,
lower.png,congLeft.png,right,180,0,13,13,4,,,,,,,,,89.40222750045359,,,,,,,,,,89.38792760018259,89.40222750045359,89.80195569992065,89.78695680014789,0.4,89.78701649978757,89.80195569992065,89.80195569992065,89.90156039968133,90.3021873999387,90.3021873999387,90.3021873999387,90.77092809975147,right,1,0.4572358997538686,None,90.77189440000802,90.78490869980305,91.77011729963124,91.78519759979099,,,,,,,,,,,,,,,,,,,,,,,,,,,,,,Prism,1,32,Female,White,,2024-12-05_09h42.30.202,dissANT,2023.2.3,59.79845536642999,2024-12-05 09h48.45.939179 -0600,
centre.png,congRight.png,left,180,0,14,14,14,,,,,,,,,91.78519759979099,,,,,,,,,,91.77107660006732,91.78519759979099,92.33532920014113,92.32087120041251,0.55,92.32094310037792,92.33532920014113,92.33532920014113,92.43531940039247,92.83547450043261,92.83547450043261,92.83547450043261,93.42189269978553,left,1,0.5808620005846024,None,93.42309719976038,93.43513580039144,94.41985089983791,94.43519680015743,,,,,,,,,,,,,,,,,,,,,,,,,,,,,,Prism,1,32,Female,White,,2024-12-05_09h42.30.202,dissANT,2023.2.3,59.79845536642999,2024-12-05 09h48.45.939179 -0600,
upper.png,congLeft.png,left,0,0,15,15,0,,,,,,,,,94.43519680015743,,,,,,,,,,94.42074409965426,94.43519680015743,94.83525650016963,94.8208494996652,0.4,94.8209154997021,94.83525650016963,94.83525650016963,94.93551400024444,95.33509219996631,95.33509219996631,95.33509219996631,95.82089160010219,left,1,0.47073369938880205,None,95.82185150031,95.83500500023365,96.81944109965116,96.83513929974288,,,,,,,,,,,,,,,,,,,,,,,,,,,,,,Prism,1,32,Female,White,,2024-12-05_09h42.30.202,dissANT,2023.2.3,59.79845536642999,2024-12-05 09h48.45.939179 -0600,
both.png,congLeft.png,right,180,0,16,16,5,,,,,,,,,96.83513929974288,,,,,,,,,,96.82011769991368,96.83513929974288,97.2851299000904,97.26941819954664,0.45,97.269472300075,97.2851299000904,97.2851299000904,97.38493970036507,97.78512770030648,97.78512770030648,97.78512770030648,98.28784960042685,right,1,0.49666659999638796,None,98.28883790038526,98.30133850034326,99.28718450013548,99.30203290004283,,,,,,,,,,,,,,,,,,,,,,,,,,,,,,Prism,1,32,Female,White,,2024-12-05_09h42.30.202,dissANT,2023.2.3,59.79845536642999,2024-12-05 09h48.45.939179 -0600,
upper.png,congRight.png,right,0,0,17,17,8,,,,,,,,,99.30203290004283,,,,,,,,,,99.28807459957898,99.30203290004283,99.75138759985566,99.7369240000844,0.45,99.73698469996452,99.75138759985566,99.75138759985566,99.85175030026585,100.25142819993198,100.25142819993198,100.25142819993198,100.70433109998703,right,1,0.4478119993582368,None,100.70535730011761,100.71815109997988,101.70325739961118,101.71859419997782,,,,,,,,,,,,,,,,,,,,,,,,,,,,,,Prism,1,32,Female,White,,2024-12-05_09h42.30.202,dissANT,2023.2.3,59.79845536642999,2024-12-05 09h48.45.939179 -0600,
blank.png,congLeft.png,right,180,0,18,18,7,,,,,,,,,101.71859419997782,,,,,,,,,,101.70387450046837,101.71859419997782,102.21791169978678,102.20163870044053,0.5,102.2016511997208,102.21791169978678,102.21791169978678,102.3178687999025,102.70156919956207,102.70156919956207,102.7177630001679,103.40357800014317,right,1,0.6848531998693943,None,103.40439100004733,103.41806130018085,104.40202900022268,104.41854829993099,,,,,,,,,,,,,,,,,,,,,,,,,,,,,,Prism,1,32,Female,White,,2024-12-05_09h42.30.202,dissANT,2023.2.3,59.79845536642999,2024-12-05 09h48.45.939179 -0600,
blank.png,congRight.png,left,180,0,19,19,15,,,,,,,,,104.41854829993099,,,,,,,,,,104.40260620042682,104.41854829993099,104.81828510016203,104.80386030022055,0.4,104.80393400043249,104.81828510016203,104.81828510016203,104.91840349975973,105.31854629982263,105.31854629982263,105.31854629982263,106.00398380029947,left,1,0.673399199731648,None,106.00504590012133,106.01771199982613,107.00179320015013,107.01766389980912,,,,,,,,,,,,,,,,,,,,,,,,,,,,,,Prism,1,32,Female,White,,2024-12-05_09h42.30.202,dissANT,2023.2.3,59.79845536642999,2024-12-05 09h48.45.939179 -0600,
centre.png,congLeft.png,right,180,0,20,20,6,,,,,,,,,107.01766389980912,,,,,,,,,,107.00228879973292,107.01766389980912,107.51825109962374,107.50328020006418,0.5,107.50333929993212,107.51825109962374,107.51825109962374,107.6183842997998,108.01799330022186,108.01799330022186,108.01799330022186,108.50224430020899,right,1,0.4738155994564295,None,108.5029079997912,108.51808799989522,109.50324620027095,109.51801449991763,,,,,,,,,,,,,,,,,,,,,,,,,,,,,,Prism,1,32,Female,White,,2024-12-05_09h42.30.202,dissANT,2023.2.3,59.79845536642999,2024-12-05 09h48.45.939179 -0600,
blank.png,congRight.png,right,0,0,21,21,11,,,,,,,,,109.51801449991763,,,,,,,,,,109.504225499928,109.51801449991763,110.06813129968941,110.05350080039352,0.55,110.05358409974724,110.06813129968941,110.06813129968941,110.16834570001811,110.56834369990975,110.56834369990975,110.56834369990975,111.07096309959888,right,1,0.49409989919513464,None,111.07192230038345,111.08437439985573,112.06977379973978,112.08490960020572,,,,,,,,,,,,,,,,,,,,,,,,,,,,,,Prism,1,32,Female,White,,2024-12-05_09h42.30.202,dissANT,2023.2.3,59.79845536642999,2024-12-05 09h48.45.939179 -0600,
blank.png,incongLeft.png,left,0,0,22,22,19,,,,,,,,,112.08490960020572,,,,,,,,,,112.07064490020275,112.08490960020572,112.48465710040182,112.46882569976151,0.4,112.46886439993978,112.48465710040182,112.48465710040182,112.5849337996915,112.96843229979277,112.96843229979277,112.98486880026758,113.65379479993135,left,1,0.6701416000723839,None,113.65476450044662,113.66786099970341,114.65336699970067,114.66830059979111,,,,,,,,,,,,,,,,,,,,,,,,,,,,,,Prism,1,32,Female,White,,2024-12-05_09h42.30.202,dissANT,2023.2.3,59.79845536642999,2024-12-05 09h48.45.939179 -0600,
both.png,congRight.png,left,180,0,23,23,13,,,,,,,,,114.66830059979111,,,,,,,,,,114.65428469981998,114.66830059979111,115.21812419965863,115.2027781996876,0.55,115.2028245003894,115.21812419965863,115.21812419965863,115.31805159989744,115.71834240015596,115.71834240015596,115.71834240015596,116.22084170021117,left,1,0.4886557999998331,None,116.22201719973236,116.2342876996845,117.22012849990278,117.2349199000746,,,,,,,,,,,,,,,,,,,,,,,,,,,,,,Prism,1,32,Female,White,,2024-12-05_09h42.30.202,dissANT,2023.2.3,59.79845536642999,2024-12-05 09h48.45.939179 -0600,
,,,,,,,,,,,,,,,,,,,,,,,,,,,,,,,,,,,,,,,,,,,,,,,117.22034890018404,117.2349199000746,117.2349199000746,126.43772239983082,space,9.192239799536765,None,,,,,,,,,,,,,,,,,,,,,,,Prism,1,32,Female,White,,2024-12-05_09h42.30.202,dissANT,2023.2.3,59.79845536642999,2024-12-05 09h48.45.939179 -0600,
lower.png,incongLeft.png,right,180,,,,,0,0,0,0,0,0,0,20,126.46650379989296,,,,,,,,,,126.46132779959589,126.46650379989296,126.9672368997708,126.95308970008045,0.5,126.95315629988909,126.9672368997708,126.9672368997708,127.06817669980228,127.46808340027928,127.46808340027928,127.46808340027928,128.30420389957726,right,1,0.8316217996180058,None,,,,,,,,,,,,,,,,,,,,,,,,,,,,,,,,,,Prism,1,32,Female,White,,2024-12-05_09h42.30.202,dissANT,2023.2.3,59.79845536642999,2024-12-05 09h48.45.939179 -0600,
both.png,congLeft.png,left,0,,,,,0,0,0,0,0,1,1,1,128.31774690002203,,,,,,,,,,128.30649990029633,128.31774690002203,128.71752579975873,128.7033139001578,0.4,128.7033978002146,128.71752579975873,128.71752579975873,128.81766130030155,129.21806440036744,129.21806440036744,129.21806440036744,129.6713250996545,left,1,0.443957700394094,None,,,,,,,,,,,,,,,,,,,,,,,,,,,,,,,,,,Prism,1,32,Female,White,,2024-12-05_09h42.30.202,dissANT,2023.2.3,59.79845536642999,2024-12-05 09h48.45.939179 -0600,
centre.png,congRight.png,right,0,,,,,0,0,0,0,0,2,2,10,129.68433300033212,,,,,,,,,,129.67329929955304,129.68433300033212,130.08442780002952,130.0693471999839,0.4,130.06941429991275,130.08442780002952,130.08442780002952,130.1843747999519,130.5844925995916,130.5844925995916,130.5844925995916,131.1364409001544,right,1,0.5474367998540401,None,,,,,,,,,,,,,,,,,,,,,,,,,,,,,,,,,,Prism,1,32,Female,White,,2024-12-05_09h42.30.202,dissANT,2023.2.3,59.79845536642999,2024-12-05 09h48.45.939179 -0600,
both.png,congRight.png,left,180,,,,,0,0,0,0,0,3,3,13,131.15097729954869,,,,,,,,,,131.13787060044706,131.15097729954869,131.5510983997956,131.53520609997213,0.4,131.53524459991604,131.5510983997956,131.5510983997956,131.65121650043875,132.0342942001298,132.0342942001298,132.05099910032004,132.53470419999212,left,1,0.49650010000914335,None,,,,,,,,,,,,,,,,,,,,,,,,,,,,,,,,,,Prism,1,32,Female,White,,2024-12-05_09h42.30.202,dissANT,2023.2.3,59.79845536642999,2024-12-05 09h48.45.939179 -0600,
upper.png,incongRight.png,right,0,,,,,0,0,0,0,0,4,4,24,132.55030179955065,,,,,,,,,,132.53516650013626,132.55030179955065,133.05076989997178,133.0360220996663,0.5,133.03608409967273,133.05076989997178,133.05076989997178,133.15096690040082,133.5508861001581,133.5508861001581,133.5508861001581,134.13453819975257,right,1,0.5808759005740285,None,,,,,,,,,,,,,,,,,,,,,,,,,,,,,,,,,,Prism,1,32,Female,White,,2024-12-05_09h42.30.202,dissANT,2023.2.3,59.79845536642999,2024-12-05 09h48.45.939179 -0600,
blank.png,incongLeft.png,left,0,,,,,0,0,0,0,0,5,5,19,134.15066440030932,,,,,,,,,,134.13500730041414,134.15066440030932,134.70066950004548,134.6858013998717,0.55,134.68586200010031,134.70066950004548,134.70066950004548,134.80074230022728,135.20108569972217,135.20108569972217,135.20108569972217,135.93638360034674,left,1,0.7239679992198944,None,,,,,,,,,,,,,,,,,,,,,,,,,,,,,,,,,,Prism,1,32,Female,White,,2024-12-05_09h42.30.202,dissANT,2023.2.3,59.79845536642999,2024-12-05 09h48.45.939179 -0600,
blank.png,congLeft.png,left,0,,,,,0,0,0,0,0,6,6,3,135.95085579995066,,,,,,,,,,135.93776969984174,135.95085579995066,136.35059580020607,136.33579130005091,0.4,136.33585119992495,136.35059580020607,136.35059580020607,136.4510356001556,136.85085279960185,136.85085279960185,136.85085279960185,137.4538019001484,left,1,0.5916814003139734,None,,,,,,,,,,,,,,,,,,,,,,,,,,,,,,,,,,Prism,1,32,Female,White,,2024-12-05_09h42.30.202,dissANT,2023.2.3,59.79845536642999,2024-12-05 09h48.45.939179 -0600,
centre.png,incongLeft.png,left,0,,,,,0,0,0,0,0,7,7,18,137.46761280018836,,,,,,,,,,137.45542750041932,137.46761280018836,138.01752729993314,138.00230509974062,0.55,138.00236329995096,138.01752729993314,138.01752729993314,138.11751700006425,138.51773199997842,138.51773199997842,138.51773199997842,139.1211213003844,right,0,0.5922248000279069,None,,,,,,,,,,,,,,,,,,,,,,,,,,,,,,,,,,Prism,1,32,Female,White,,2024-12-05_09h42.30.202,dissANT,2023.2.3,59.79845536642999,2024-12-05 09h48.45.939179 -0600,
centre.png,neutralLeft.png,left,0,,,,,0,0,0,0,0,8,8,34,139.13382619991899,,,,,,,,,,139.12289089988917,139.13382619991899,139.5342779001221,139.51912750024348,0.4,139.51919979974627,139.5342779001221,139.5342779001221,139.63424970023334,140.03428400028497,140.03428400028497,140.03428400028497,140.57012140005827,left,1,0.5195360006764531,None,,,,,,,,,,,,,,,,,,,,,,,,,,,,,,,,,,Prism,1,32,Female,White,,2024-12-05_09h42.30.202,dissANT,2023.2.3,59.79845536642999,2024-12-05 09h48.45.939179 -0600,
both.png,incongLeft.png,left,0,,,,,0,0,0,0,0,9,9,17,140.5844131996855,,,,,,,,,,140.57153549976647,140.5844131996855,140.98469499964267,140.96936709992588,0.4,140.9694290002808,140.98469499964267,140.98469499964267,141.0841715997085,141.4843265004456,141.4843265004456,141.4843265004456,142.00239199958742,left,1,0.5074487002566457,None,,,,,,,,,,,,,,,,,,,,,,,,,,,,,,,,,,Prism,1,32,Female,White,,2024-12-05_09h42.30.202,dissANT,2023.2.3,59.79845536642999,2024-12-05 09h48.45.939179 -0600,
both.png,neutralLeft.png,right,180,,,,,0,0,0,0,0,10,10,37,142.01755779981613,,,,,,,,,,142.00341629981995,142.01755779981613,142.56744369957596,142.55301740020514,0.55,142.55309019982815,142.56744369957596,142.56744369957596,142.66729030013084,143.06775229983032,143.06775229983032,143.06775229983032,143.78637879993767,right,1,0.7135196998715401,None,,,,,,,,,,,,,,,,,,,,,,,,,,,,,,,,,,Prism,1,32,Female,White,,2024-12-05_09h42.30.202,dissANT,2023.2.3,59.79845536642999,2024-12-05 09h48.45.939179 -0600,
lower.png,incongRight.png,left,180,,,,,0,0,0,0,0,11,11,28,143.80065950006247,,,,,,,,,,143.78788360022008,143.80065950006247,144.300725299865,144.28609129972756,0.5,144.28615720011294,144.300725299865,144.300725299865,144.40068909991533,144.80072099994868,144.80072099994868,144.80072099994868,145.50268589984626,left,1,0.6917721992358565,None,,,,,,,,,,,,,,,,,,,,,,,,,,,,,,,,,,Prism,1,32,Female,White,,2024-12-05_09h42.30.202,dissANT,2023.2.3,59.79845536642999,2024-12-05 09h48.45.939179 -0600,
both.png,congLeft.png,right,180,,,,,0,0,0,0,0,12,12,5,145.51730259973556,,,,,,,,,,145.50392999965698,145.51730259973556,145.9171831998974,145.90057469997555,0.4,145.9005995998159,145.9171831998974,145.9171831998974,146.017334099859,146.4006776995957,146.4006776995957,146.4173381999135,147.07111870031804,right,1,0.6583488993346691,None,,,,,,,,,,,,,,,,,,,,,,,,,,,,,,,,,,Prism,1,32,Female,White,,2024-12-05_09h42.30.202,dissANT,2023.2.3,59.79845536642999,2024-12-05 09h48.45.939179 -0600,
blank.png,congRight.png,right,0,,,,,0,0,0,0,0,13,13,11,147.08409080002457,,,,,,,,,,147.07301810011268,147.08409080002457,147.53403730038553,147.51884610019624,0.45,147.51889470033348,147.53403730038553,147.53403730038553,147.63426150009036,148.03397069964558,148.03397069964558,148.03397069964558,148.7035320000723,right,1,0.6670148000121117,None,,,,,,,,,,,,,,,,,,,,,,,,,,,,,,,,,,Prism,1,32,Female,White,,2024-12-05_09h42.30.202,dissANT,2023.2.3,59.79845536642999,2024-12-05 09h48.45.939179 -0600,
both.png,incongRight.png,right,0,,,,,0,0,0,0,0,14,14,25,148.71677029971033,,,,,,,,,,148.704800600186,148.71677029971033,149.26717420015484,149.25293979980052,0.55,149.25301389954984,149.26717420015484,149.26717420015484,149.36692440044135,149.76751870010048,149.76751870010048,149.76751870010048,150.41899020038545,right,1,0.6459881998598576,None,,,,,,,,,,,,,,,,,,,,,,,,,,,,,,,,,,Prism,1,32,Female,White,,2024-12-05_09h42.30.202,dissANT,2023.2.3,59.79845536642999,2024-12-05 09h48.45.939179 -0600,
lower.png,neutralLeft.png,right,180,,,,,0,0,0,0,0,15,15,36,150.43395129963756,,,,,,,,,,150.42021459992975,150.43395129963756,150.93390040006489,150.91914260014892,0.5,150.91921070031822,150.93390040006489,150.93390040006489,151.03390089981258,151.43360070046037,151.43360070046037,151.43360070046037,152.00307650025934,right,1,0.5603787004947662,None,,,,,,,,,,,,,,,,,,,,,,,,,,,,,,,,,,Prism,1,32,Female,White,,2024-12-05_09h42.30.202,dissANT,2023.2.3,59.79845536642999,2024-12-05 09h48.45.939179 -0600,
upper.png,congRight.png,right,0,,,,,0,0,0,0,0,16,16,8,152.01725369971246,,,,,,,,,,152.00462840031832,152.01725369971246,152.56728530023247,152.5522028999403,0.55,152.5522651001811,152.56728530023247,152.56728530023247,152.66727649979293,153.06722460035235,153.06722460035235,153.06722460035235,153.58607260044664,right,1,0.5106570003554225,None,,,,,,,,,,,,,,,,,,,,,,,,,,,,,,,,,,Prism,1,32,Female,White,,2024-12-05_09h42.30.202,dissANT,2023.2.3,59.79845536642999,2024-12-05 09h48.45.939179 -0600,
both.png,incongRight.png,left,180,,,,,0,0,0,0,0,17,17,29,153.60035210009664,,,,,,,,,,153.58760089986026,153.60035210009664,154.1004066998139,154.08425499964505,0.5,154.08427160046995,154.1004066998139,154.1004066998139,154.20043549966067,154.58377279993147,154.58377279993147,154.60045319981873,155.2529744002968,left,1,0.6620471002534032,None,,,,,,,,,,,,,,,,,,,,,,,,,,,,,,,,,,Prism,1,32,Female,White,,2024-12-05_09h42.30.202,dissANT,2023.2.3,59.79845536642999,2024-12-05 09h48.45.939179 -0600,
lower.png,congLeft.png,right,180,,,,,0,0,0,0,0,18,18,4,155.26699540019035,,,,,,,,,,155.2544139996171,155.26699540019035,155.8170739999041,155.80195430014282,0.55,155.80201040022075,155.8170739999041,155.8170739999041,155.916642899625,156.3171567004174,156.3171567004174,156.3171567004174,156.85316650010645,right,1,0.530511099845171,None,,,,,,,,,,,,,,,,,,,,,,,,,,,,,,,,,,Prism,1,32,Female,White,,2024-12-05_09h42.30.202,dissANT,2023.2.3,59.79845536642999,2024-12-05 09h48.45.939179 -0600,
centre.png,incongRight.png,right,0,,,,,0,0,0,0,0,19,19,26,156.86733810044825,,,,,,,,,,156.85467700008303,156.86733810044825,157.41674579959363,157.4026592001319,0.55,157.4027457004413,157.41674579959363,157.41674579959363,157.5171464998275,157.91658960003406,157.91658960003406,157.91658960003406,158.60178610030562,right,1,0.6831922000274062,None,,,,,,,,,,,,,,,,,,,,,,,,,,,,,,,,,,Prism,1,32,Female,White,,2024-12-05_09h42.30.202,dissANT,2023.2.3,59.79845536642999,2024-12-05 09h48.45.939179 -0600,
blank.png,congLeft.png,right,180,,,,,0,0,0,0,0,20,20,7,158.61686099972576,,,,,,,,,,158.60293109994382,158.61686099972576,159.1170797003433,159.10200070030987,0.5,159.10205989982933,159.1170797003433,159.1170797003433,159.21705569978803,159.61672060005367,159.61672060005367,159.61672060005367,160.40430510044098,right,1,0.7734423000365496,None,,,,,,,,,,,,,,,,,,,,,,,,,,,,,,,,,,Prism,1,32,Female,White,,2024-12-05_09h42.30.202,dissANT,2023.2.3,59.79845536642999,2024-12-05 09h48.45.939179 -0600,
blank.png,neutralRight.png,right,0,,,,,0,0,0,0,0,21,21,43,160.417041500099,,,,,,,,,,160.4057363998145,160.417041500099,160.86714840028435,160.85178720019758,0.45,160.8518425002694,160.86714840028435,160.86714840028435,160.96666769962758,161.36718420032412,161.36718420032412,161.36718420032412,162.053057000041,right,1,0.6794426003471017,None,,,,,,,,,,,,,,,,,,,,,,,,,,,,,,,,,,Prism,1,32,Female,White,,2024-12-05_09h42.30.202,dissANT,2023.2.3,59.79845536642999,2024-12-05 09h48.45.939179 -0600,
upper.png,incongLeft.png,left,0,,,,,0,0,0,0,0,22,22,16,162.06721749994904,,,,,,,,,,162.0547769004479,162.06721749994904,162.61697129998356,162.60133619979024,0.55,162.60139520000666,162.61697129998356,162.61697129998356,162.71692129969597,163.11728600040078,163.11728600040078,163.11728600040078,163.63670600019395,left,1,0.5080168005079031,None,,,,,,,,,,,,,,,,,,,,,,,,,,,,,,,,,,Prism,1,32,Female,White,,2024-12-05_09h42.30.202,dissANT,2023.2.3,59.79845536642999,2024-12-05 09h48.45.939179 -0600,
centre.png,neutralLeft.png,right,180,,,,,0,0,0,0,0,23,23,38,163.65018370002508,,,,,,,,,,163.63874229975045,163.65018370002508,164.04975800029933,164.0354111995548,0.4,164.0354704996571,164.04975800029933,164.04975800029933,164.15016820002347,164.55028219986707,164.55028219986707,164.55028219986707,165.20291739981622,right,1,0.6465870998799801,None,,,,,,,,,,,,,,,,,,,,,,,,,,,,,,,,,,Prism,1,32,Female,White,,2024-12-05_09h42.30.202,dissANT,2023.2.3,59.79845536642999,2024-12-05 09h48.45.939179 -0600,
upper.png,neutralRight.png,right,0,,,,,0,0,0,0,0,24,24,40,165.2168440995738,,,,,,,,,,165.20453779958189,165.2168440995738,165.66680939961225,165.65229689981788,0.45,165.65237039979547,165.66680939961225,165.66680939961225,165.76649979967624,166.16705240029842,166.16705240029842,166.16705240029842,166.65326910000294,right,1,0.47809609957039356,None,,,,,,,,,,,,,,,,,,,,,,,,,,,,,,,,,,Prism,1,32,Female,White,,2024-12-05_09h42.30.202,dissANT,2023.2.3,59.79845536642999,2024-12-05 09h48.45.939179 -0600,
blank.png,congRight.png,left,180,,,,,0,0,0,0,0,25,25,15,166.66692559979856,,,,,,,,,,166.65482989978045,166.66692559979856,167.21654640045017,167.20205750036985,0.55,167.20211770012975,167.21654640045017,167.21654640045017,167.31695509981364,167.71716229990125,167.71716229990125,167.71716229990125,168.3346696002409,left,1,0.603659600019455,None,,,,,,,,,,,,,,,,,,,,,,,,,,,,,,,,,,Prism,1,32,Female,White,,2024-12-05_09h42.30.202,dissANT,2023.2.3,59.79845536642999,2024-12-05 09h48.45.939179 -0600,
both.png,neutralRight.png,left,180,,,,,0,0,0,0,0,26,26,45,168.35009269975126,,,,,,,,,,168.33591589983553,168.35009269975126,168.89993030019104,168.88544050045311,0.55,168.8855060003698,168.89993030019104,168.89993030019104,169.00011049956083,169.40016820002347,169.40016820002347,169.40016820002347,170.03614140022546,left,1,0.6327427998185158,None,,,,,,,,,,,,,,,,,,,,,,,,,,,,,,,,,,Prism,1,32,Female,White,,2024-12-05_09h42.30.202,dissANT,2023.2.3,59.79845536642999,2024-12-05 09h48.45.939179 -0600,
both.png,incongLeft.png,right,180,,,,,0,0,0,0,0,27,27,21,170.05008389987051,,,,,,,,,,170.03755879960954,170.05008389987051,170.5000631995499,170.48530330043286,0.45,170.48536880034953,170.5000631995499,170.5000631995499,170.60012380033731,171.0003538997844,171.0003538997844,171.0003538997844,171.85282710008323,right,1,0.8379472997039557,None,,,,,,,,,,,,,,,,,,,,,,,,,,,,,,,,,,Prism,1,32,Female,White,,2024-12-05_09h42.30.202,dissANT,2023.2.3,59.79845536642999,2024-12-05 09h48.45.939179 -0600,
blank.png,neutralRight.png,left,180,,,,,0,0,0,0,0,28,28,47,171.86673399992287,,,,,,,,,,171.85441590007395,171.86673399992287,172.26670750044286,172.25196740031242,0.4,172.25202760007232,172.26670750044286,172.26670750044286,172.3670450001955,172.76686470024288,172.76686470024288,172.76686470024288,173.60199480038136,left,1,0.8259570002555847,None,,,,,,,,,,,,,,,,,,,,,,,,,,,,,,,,,,Prism,1,32,Female,White,,2024-12-05_09h42.30.202,dissANT,2023.2.3,59.79845536642999,2024-12-05 09h48.45.939179 -0600,
centre.png,congLeft.png,right,180,,,,,0,0,0,0,0,29,29,6,173.61658960022032,,,,,,,,,,173.60339420009404,173.61658960022032,174.06634460017085,174.0525901997462,0.45,174.0526762995869,174.06634460017085,174.06634460017085,174.1664615003392,174.56692640017718,174.56692640017718,174.56692640017718,175.20316390041262,right,1,0.6255418993532658,None,,,,,,,,,,,,,,,,,,,,,,,,,,,,,,,,,,Prism,1,32,Female,White,,2024-12-05_09h42.30.202,dissANT,2023.2.3,59.79845536642999,2024-12-05 09h48.45.939179 -0600,
upper.png,congLeft.png,left,0,,,,,0,0,0,0,0,30,30,0,175.21669190004468,,,,,,,,,,175.20506149996072,175.21669190004468,175.7663316000253,175.75198249984533,0.55,175.75208210013807,175.7663316000253,175.7663316000253,175.86670379992574,176.266807500273,176.266807500273,176.266807500273,176.70210009999573,left,1,0.42865979950875044,None,,,,,,,,,,,,,,,,,,,,,,,,,,,,,,,,,,Prism,1,32,Female,White,,2024-12-05_09h42.30.202,dissANT,2023.2.3,59.79845536642999,2024-12-05 09h48.45.939179 -0600,
centre.png,incongRight.png,left,180,,,,,0,0,0,0,0,31,31,30,176.71660249959677,,,,,,,,,,176.70340560004115,176.71660249959677,177.21677490044385,177.20140579994768,0.5,177.20146599970758,177.21677490044385,177.21677490044385,177.31676760036498,177.71714229974896,177.71714229974896,177.71714229974896,178.45233509968966,left,1,0.7283183997496963,None,,,,,,,,,,,,,,,,,,,,,,,,,,,,,,,,,,Prism,1,32,Female,White,,2024-12-05_09h42.30.202,dissANT,2023.2.3,59.79845536642999,2024-12-05 09h48.45.939179 -0600,
blank.png,incongRight.png,left,180,,,,,0,0,0,0,0,32,32,31,178.466578300111,,,,,,,,,,178.45388399995863,178.466578300111,178.91641390044242,178.90207850001752,0.45,178.90216130018234,178.91641390044242,178.91641390044242,179.01663019973785,179.4168392997235,179.4168392997235,179.4168392997235,180.18548639956862,left,1,0.7509939996525645,None,,,,,,,,,,,,,,,,,,,,,,,,,,,,,,,,,,Prism,1,32,Female,White,,2024-12-05_09h42.30.202,dissANT,2023.2.3,59.79845536642999,2024-12-05 09h48.45.939179 -0600,
blank.png,incongLeft.png,right,180,,,,,0,0,0,0,0,33,33,23,180.19974420033395,,,,,,,,,,180.18688600044698,180.19974420033395,180.64971719961613,180.63476909976453,0.45,180.63482000026852,180.64971719961613,180.64971719961613,180.7493518004194,181.14947030041367,181.14947030041367,181.14947030041367,181.98554600030184,right,1,0.8233491005375981,None,,,,,,,,,,,,,,,,,,,,,,,,,,,,,,,,,,Prism,1,32,Female,White,,2024-12-05_09h42.30.202,dissANT,2023.2.3,59.79845536642999,2024-12-05 09h48.45.939179 -0600,
both.png,neutralRight.png,right,0,,,,,0,0,0,0,0,34,34,41,181.99967230018228,,,,,,,,,,181.98707129992545,181.99967230018228,182.54998799972236,182.53483919985592,0.55,182.53488519974053,182.54998799972236,182.54998799972236,182.64998439978808,183.05003300029784,183.05003300029784,183.05003300029784,183.7354814996943,right,1,0.677700400352478,None,,,,,,,,,,,,,,,,,,,,,,,,,,,,,,,,,,Prism,1,32,Female,White,,2024-12-05_09h42.30.202,dissANT,2023.2.3,59.79845536642999,2024-12-05 09h48.45.939179 -0600,
blank.png,incongRight.png,right,0,,,,,0,0,0,0,0,35,35,27,183.74968129955232,,,,,,,,,,183.73692059982568,183.74968129955232,184.19969750009477,184.1838937997818,0.45,184.18393709976226,184.19969750009477,184.19969750009477,184.29968119971454,184.68324080016464,184.68324080016464,184.69968499988317,185.33451979979873,right,1,0.6436374997720122,None,,,,,,,,,,,,,,,,,,,,,,,,,,,,,,,,,,Prism,1,32,Female,White,,2024-12-05_09h42.30.202,dissANT,2023.2.3,59.79845536642999,2024-12-05 09h48.45.939179 -0600,
upper.png,neutralLeft.png,left,0,,,,,0,0,0,0,0,36,36,32,185.3494087997824,,,,,,,,,,185.33583149965852,185.3494087997824,185.7496435996145,185.7348375003785,0.4,185.7348990002647,185.7496435996145,185.7496435996145,185.84961760044098,186.24979200027883,186.24979200027883,186.24979200027883,186.75096370000392,left,1,0.4917040001600981,None,,,,,,,,,,,,,,,,,,,,,,,,,,,,,,,,,,Prism,1,32,Female,White,,2024-12-05_09h42.30.202,dissANT,2023.2.3,59.79845536642999,2024-12-05 09h48.45.939179 -0600,
both.png,neutralLeft.png,left,0,,,,,0,0,0,0,0,37,37,33,186.7664160002023,,,,,,,,,,186.7523814002052,186.7664160002023,187.16640899982303,187.15190930012614,0.4,187.15198460035026,187.16640899982303,187.16640899982303,187.2666103998199,187.66689790040255,187.66689790040255,187.66689790040255,188.15313419979066,left,1,0.4785454999655485,None,,,,,,,,,,,,,,,,,,,,,,,,,,,,,,,,,,Prism,1,32,Female,White,,2024-12-05_09h42.30.202,dissANT,2023.2.3,59.79845536642999,2024-12-05 09h48.45.939179 -0600,
centre.png,neutralRight.png,left,180,,,,,0,0,0,0,0,38,38,46,188.16628959961236,,,,,,,,,,188.15446580015123,188.16628959961236,188.71642979979515,188.70108630042523,0.55,188.7011350998655,188.71642979979515,188.71642979979515,188.81662589963526,189.21666010003537,189.21666010003537,189.21666010003537,189.88599320035428,left,1,0.6617008997127414,None,,,,,,,,,,,,,,,,,,,,,,,,,,,,,,,,,,Prism,1,32,Female,White,,2024-12-05_09h42.30.202,dissANT,2023.2.3,59.79845536642999,2024-12-05 09h48.45.939179 -0600,
centre.png,congLeft.png,left,0,,,,,0,0,0,0,0,39,39,2,189.89964579977095,,,,,,,,,,189.88768269959837,189.89964579977095,190.29961279965937,190.28513810038567,0.4,190.28520509973168,190.29961279965937,190.29961279965937,190.3995607998222,190.79963050037622,190.79963050037622,190.79963050037622,191.2507266001776,left,1,0.4358101999387145,None,,,,,,,,,,,,,,,,,,,,,,,,,,,,,,,,,,Prism,1,32,Female,White,,2024-12-05_09h42.30.202,dissANT,2023.2.3,59.79845536642999,2024-12-05 09h48.45.939179 -0600,
both.png,congRight.png,right,0,,,,,0,0,0,0,0,40,40,9,191.2663441998884,,,,,,,,,,191.25184839963913,191.2663441998884,191.71598610002548,191.70166340004653,0.45,191.70173509977758,191.71598610002548,191.71598610002548,191.81620590016246,192.21621880028397,192.21621880028397,192.21621880028397,192.73298369999975,right,1,0.5078396005555987,None,,,,,,,,,,,,,,,,,,,,,,,,,,,,,,,,,,Prism,1,32,Female,White,,2024-12-05_09h42.30.202,dissANT,2023.2.3,59.79845536642999,2024-12-05 09h48.45.939179 -0600,
centre.png,incongLeft.png,right,180,,,,,0,0,0,0,0,41,41,22,192.74892660044134,,,,,,,,,,192.7334452997893,192.74892660044134,193.14935959968716,193.1348642995581,0.4,193.13493879977614,193.14935959968716,193.14935959968716,193.24968510027975,193.64960999973118,193.64960999973118,193.64960999973118,194.5015682997182,right,1,0.8407258996739984,None,,,,,,,,,,,,,,,,,,,,,,,,,,,,,,,,,,Prism,1,32,Female,White,,2024-12-05_09h42.30.202,dissANT,2023.2.3,59.79845536642999,2024-12-05 09h48.45.939179 -0600,
blank.png,neutralLeft.png,left,0,,,,,0,0,0,0,0,42,42,35,194.51578150037676,,,,,,,,,,194.50316639989614,194.51578150037676,194.91604209970683,194.9023537999019,0.4,194.90243710018694,194.91604209970683,194.91604209970683,195.01577590033412,195.41646130010486,195.41646130010486,195.41646130010486,195.90339790005237,left,1,0.4837260004132986,None,,,,,,,,,,,,,,,,,,,,,,,,,,,,,,,,,,Prism,1,32,Female,White,,2024-12-05_09h42.30.202,dissANT,2023.2.3,59.79845536642999,2024-12-05 09h48.45.939179 -0600,
centre.png,neutralRight.png,right,0,,,,,0,0,0,0,0,43,43,42,195.91615950036794,,,,,,,,,,195.90520989988,195.91615950036794,196.31582759972662,196.30023910012096,0.4,196.3002802003175,196.31582759972662,196.31582759972662,196.416401299648,196.79935729969293,196.79935729969293,196.81622919999063,197.5688391001895,right,1,0.7599466005340219,None,,,,,,,,,,,,,,,,,,,,,,,,,,,,,,,,,,Prism,1,32,Female,White,,2024-12-05_09h42.30.202,dissANT,2023.2.3,59.79845536642999,2024-12-05 09h48.45.939179 -0600,
lower.png,congRight.png,left,180,,,,,0,0,0,0,0,44,44,12,197.582767999731,,,,,,,,,,197.5704461997375,197.582767999731,198.13265320006758,198.11726559977978,0.55,198.1173120001331,198.13265320006758,198.13265320006758,198.2325601996854,198.63241459988058,198.63241459988058,198.63241459988058,199.10211229976267,left,1,0.4533086000010371,None,,,,,,,,,,,,,,,,,,,,,,,,,,,,,,,,,,Prism,1,32,Female,White,,2024-12-05_09h42.30.202,dissANT,2023.2.3,59.79845536642999,2024-12-05 09h48.45.939179 -0600,
lower.png,neutralRight.png,left,180,,,,,0,0,0,0,0,45,45,44,199.11573980003595,,,,,,,,,,199.10371430031955,199.11573980003595,199.51591190043837,199.50119640026242,0.4,199.50126339960843,199.51591190043837,199.51591190043837,199.6161863002926,200.0164398001507,200.0164398001507,200.0164398001507,200.46960149984807,left,1,0.43770499993115664,None,,,,,,,,,,,,,,,,,,,,,,,,,,,,,,,,,,Prism,1,32,Female,White,,2024-12-05_09h42.30.202,dissANT,2023.2.3,59.79845536642999,2024-12-05 09h48.45.939179 -0600,
blank.png,neutralLeft.png,right,180,,,,,0,0,0,0,0,46,46,39,200.48278299998492,,,,,,,,,,200.4715790003538,200.48278299998492,200.93258260004222,200.91798890009522,0.45,200.91806219983846,200.93258260004222,200.93258260004222,201.0329644996673,201.43290019966662,201.43290019966662,201.43290019966662,202.19983560033143,right,1,0.7553393999114633,None,,,,,,,,,,,,,,,,,,,,,,,,,,,,,,,,,,Prism,1,32,Female,White,,2024-12-05_09h42.30.202,dissANT,2023.2.3,59.79845536642999,2024-12-05 09h48.45.939179 -0600,
centre.png,congRight.png,left,180,,,,,0,0,0,0,0,47,47,14,202.21548820007592,,,,,,,,,,202.20071709994227,202.21548820007592,202.7158252997324,202.70058999955654,0.5,202.7006641998887,202.7158252997324,202.7158252997324,202.81639729999006,203.21634859964252,203.21634859964252,203.21634859964252,203.86935800034553,left,1,0.6386909000575542,None,,,,,,,,,,,,,,,,,,,,,,,,,,,,,,,,,,Prism,1,32,Female,White,,2024-12-05_09h42.30.202,dissANT,2023.2.3,59.79845536642999,2024-12-05 09h48.45.939179 -0600,
blank.png,incongLeft.png,right,180,,,,,0,0,0,0,1,0,48,23,203.88256710022688,,,,,,,,,,203.87115690018982,203.88256710022688,204.38260030001402,204.36779200006276,0.5,204.3678585998714,204.38260030001402,204.38260030001402,204.48274290002882,204.8826820999384,204.8826820999384,204.8826820999384,205.55183480028063,right,1,0.6538456995040178,None,,,,,,,,,,,,,,,,,,,,,,,,,,,,,,,,,,Prism,1,32,Female,White,,2024-12-05_09h42.30.202,dissANT,2023.2.3,59.79845536642999,2024-12-05 09h48.45.939179 -0600,
blank.png,congLeft.png,right,180,,,,,0,0,0,0,1,1,49,7,205.56575750000775,,,,,,,,,,205.55354280024767,205.56575750000775,205.96585770044476,205.95086409989744,0.4,205.95091919973493,205.96585770044476,205.96585770044476,206.06577800028026,206.46612260024995,206.46612260024995,206.46612260024995,207.1860787998885,right,1,0.7120097000151873,None,,,,,,,,,,,,,,,,,,,,,,,,,,,,,,,,,,Prism,1,32,Female,White,,2024-12-05_09h42.30.202,dissANT,2023.2.3,59.79845536642999,2024-12-05 09h48.45.939179 -0600,
both.png,neutralLeft.png,left,0,,,,,0,0,0,0,1,2,50,33,207.19899700023234,,,,,,,,,,207.18794259987772,207.19899700023234,207.6492047002539,207.63402619957924,0.45,207.63410439994186,207.6492047002539,207.6492047002539,207.74910300038755,208.1485345000401,208.1485345000401,208.1485345000401,208.5992500996217,left,1,0.4398936005309224,None,,,,,,,,,,,,,,,,,,,,,,,,,,,,,,,,,,Prism,1,32,Female,White,,2024-12-05_09h42.30.202,dissANT,2023.2.3,59.79845536642999,2024-12-05 09h48.45.939179 -0600,
upper.png,incongRight.png,right,0,,,,,0,0,0,0,1,3,51,24,208.6152606997639,,,,,,,,,,208.59971070010215,208.6152606997639,209.1153501002118,209.09909810032696,0.5,209.0991134000942,209.1153501002118,209.1153501002118,209.21518160030246,209.59911090042442,209.59911090042442,209.61589029990137,210.13349539972842,right,1,0.523042400367558,None,,,,,,,,,,,,,,,,,,,,,,,,,,,,,,,,,,Prism,1,32,Female,White,,2024-12-05_09h42.30.202,dissANT,2023.2.3,59.79845536642999,2024-12-05 09h48.45.939179 -0600,
both.png,incongRight.png,right,0,,,,,0,0,0,0,1,4,52,25,210.1484938999638,,,,,,,,,,210.13457989972085,210.1484938999638,210.54892539978027,210.533415899612,0.4,210.53346360009164,210.54892539978027,210.54892539978027,210.64870609994978,211.03260860033333,211.03260860033333,211.04926250036806,211.5997965997085,right,1,0.5617883000522852,None,,,,,,,,,,,,,,,,,,,,,,,,,,,,,,,,,,Prism,1,32,Female,White,,2024-12-05_09h42.30.202,dissANT,2023.2.3,59.79845536642999,2024-12-05 09h48.45.939179 -0600,
both.png,congRight.png,left,180,,,,,0,0,0,0,1,5,53,13,211.61538659967482,,,,,,,,,,211.60006590001285,211.61538659967482,212.11563539970666,212.1001412998885,0.5,212.10020679980516,212.11563539970666,212.11563539970666,212.21560790017247,212.61536539997905,212.61536539997905,212.61536539997905,213.11680079996586,left,1,0.4921157993376255,None,,,,,,,,,,,,,,,,,,,,,,,,,,,,,,,,,,Prism,1,32,Female,White,,2024-12-05_09h42.30.202,dissANT,2023.2.3,59.79845536642999,2024-12-05 09h48.45.939179 -0600,
blank.png,incongLeft.png,left,0,,,,,0,0,0,0,1,6,54,19,213.13241539988667,,,,,,,,,,213.11796410009265,213.13241539988667,213.5823224997148,213.56813570018858,0.45,213.56820760015398,213.5823224997148,213.5823224997148,213.68235369957983,214.08264570031315,214.08264570031315,214.08264570031315,214.784486499615,left,1,0.6958795003592968,None,,,,,,,,,,,,,,,,,,,,,,,,,,,,,,,,,,Prism,1,32,Female,White,,2024-12-05_09h42.30.202,dissANT,2023.2.3,59.79845536642999,2024-12-05 09h48.45.939179 -0600,
both.png,congLeft.png,left,0,,,,,0,0,0,0,1,7,55,1,214.7992468997836,,,,,,,,,,214.78588800039142,214.7992468997836,215.19905809964985,215.18402600008994,0.4,215.1840859996155,215.19905809964985,215.19905809964985,215.299074199982,215.69911789987236,215.69911789987236,215.69911789987236,216.13432569988072,left,1,0.42770420014858246,None,,,,,,,,,,,,,,,,,,,,,,,,,,,,,,,,,,Prism,1,32,Female,White,,2024-12-05_09h42.30.202,dissANT,2023.2.3,59.79845536642999,2024-12-05 09h48.45.939179 -0600,
centre.png,neutralLeft.png,left,0,,,,,0,0,0,0,1,8,56,34,216.14894289989024,,,,,,,,,,216.1357383998111,216.14894289989024,216.6489155003801,216.63419099990278,0.5,216.63425299990922,216.6489155003801,216.6489155003801,216.7488980004564,217.1491365004331,217.1491365004331,217.1491365004331,217.5657781995833,left,1,0.40518049988895655,None,,,,,,,,,,,,,,,,,,,,,,,,,,,,,,,,,,Prism,1,32,Female,White,,2024-12-05_09h42.30.202,dissANT,2023.2.3,59.79845536642999,2024-12-05 09h48.45.939179 -0600,
blank.png,incongRight.png,right,0,,,,,0,0,0,0,1,9,57,27,217.5818766001612,,,,,,,,,,217.5660234997049,217.5818766001612,218.13220930006355,218.11641119979322,0.55,218.11643750034273,218.13220930006355,218.13220930006355,218.23225190024823,218.6153384996578,218.6153384996578,218.6317042997107,219.19877509959042,right,1,0.5783524001017213,None,,,,,,,,,,,,,,,,,,,,,,,,,,,,,,,,,,Prism,1,32,Female,White,,2024-12-05_09h42.30.202,dissANT,2023.2.3,59.79845536642999,2024-12-05 09h48.45.939179 -0600,
centre.png,incongRight.png,right,0,,,,,0,0,0,0,1,10,58,26,219.21491159964353,,,,,,,,,,219.19924770016223,219.21491159964353,219.7150547001511,219.6986993001774,0.5,219.6987084997818,219.7150547001511,219.7150547001511,219.81577830016613,220.1988773001358,220.1988773001358,220.21560650039464,220.76769500039518,right,1,0.5619526002556086,None,,,,,,,,,,,,,,,,,,,,,,,,,,,,,,,,,,Prism,1,32,Female,White,,2024-12-05_09h42.30.202,dissANT,2023.2.3,59.79845536642999,2024-12-05 09h48.45.939179 -0600,
centre.png,congLeft.png,left,0,,,,,0,0,0,0,1,11,59,2,220.78230329975486,,,,,,,,,,220.76896180026233,220.78230329975486,221.18226750008762,221.1677877996117,0.4,221.16786910034716,221.18226750008762,221.18226750008762,221.2823494002223,221.68169320002198,221.68169320002198,221.68169320002198,222.20077749993652,left,1,0.5052129002287984,None,,,,,,,,,,,,,,,,,,,,,,,,,,,,,,,,,,Prism,1,32,Female,White,,2024-12-05_09h42.30.202,dissANT,2023.2.3,59.79845536642999,2024-12-05 09h48.45.939179 -0600,
lower.png,congRight.png,left,180,,,,,0,0,0,0,1,12,60,12,222.21562790032476,,,,,,,,,,222.20235050003976,222.21562790032476,222.66514720022678,222.64856739994138,0.45,222.64858059957623,222.66514720022678,222.66514720022678,222.76563910022378,223.14880559965968,223.14880559965968,223.16568350046873,223.76753859966993,left,1,0.6116589996963739,None,,,,,,,,,,,,,,,,,,,,,,,,,,,,,,,,,,Prism,1,32,Female,White,,2024-12-05_09h42.30.202,dissANT,2023.2.3,59.79845536642999,2024-12-05 09h48.45.939179 -0600,
blank.png,congLeft.png,left,0,,,,,0,0,0,0,1,13,61,3,223.782487699762,,,,,,,,,,223.76894939970225,223.782487699762,224.18194680009037,224.16602140013129,0.4,224.16605660039932,224.18194680009037,224.18194680009037,224.28205449972302,224.66557549964637,224.66557549964637,224.68233359977603,225.3350069001317,left,1,0.6604816997423768,None,,,,,,,,,,,,,,,,,,,,,,,,,,,,,,,,,,Prism,1,32,Female,White,,2024-12-05_09h42.30.202,dissANT,2023.2.3,59.79845536642999,2024-12-05 09h48.45.939179 -0600,
upper.png,incongLeft.png,left,0,,,,,0,0,0,0,1,14,62,16,225.34878109954298,,,,,,,,,,225.33658699970692,225.34878109954298,225.79862149991095,225.78385279979557,0.45,225.78391319978982,225.79862149991095,225.79862149991095,225.89871009998024,226.29906409978867,226.29906409978867,226.29906409978867,227.00167489983141,left,1,0.6845802003517747,None,,,,,,,,,,,,,,,,,,,,,,,,,,,,,,,,,,Prism,1,32,Female,White,,2024-12-05_09h42.30.202,dissANT,2023.2.3,59.79845536642999,2024-12-05 09h48.45.939179 -0600,
both.png,congLeft.png,right,180,,,,,0,0,0,0,1,15,63,5,227.01543150004,,,,,,,,,,227.0034750001505,227.01543150004,227.5652667004615,227.55070590041578,0.55,227.55077780038118,227.5652667004615,227.5652667004615,227.664930799976,228.06531650014222,228.06531650014222,228.06531650014222,228.8686559004709,right,1,0.7882979996502399,None,,,,,,,,,,,,,,,,,,,,,,,,,,,,,,,,,,Prism,1,32,Female,White,,2024-12-05_09h42.30.202,dissANT,2023.2.3,59.79845536642999,2024-12-05 09h48.45.939179 -0600,
upper.png,neutralRight.png,right,0,,,,,0,0,0,0,1,16,64,40,228.88219889998436,,,,,,,,,,228.86993909999728,228.88219889998436,229.28175429999828,229.26748719997704,0.4,229.26755589991808,229.28175429999828,229.28175429999828,229.38210919965059,229.78184019960463,229.78184019960463,229.78184019960463,230.28440960031003,right,1,0.4960495997220278,None,,,,,,,,,,,,,,,,,,,,,,,,,,,,,,,,,,Prism,1,32,Female,White,,2024-12-05_09h42.30.202,dissANT,2023.2.3,59.79845536642999,2024-12-05 09h48.45.939179 -0600,
blank.png,incongRight.png,left,180,,,,,0,0,0,0,1,17,65,31,230.29822190012783,,,,,,,,,,230.28594909980893,230.29822190012783,230.79848890006542,230.78387620020658,0.5,230.78394200000912,230.79848890006542,230.79848890006542,230.8985582999885,231.29872220009565,231.29872220009565,231.29872220009565,231.95132919959724,left,1,0.6445513004437089,None,,,,,,,,,,,,,,,,,,,,,,,,,,,,,,,,,,Prism,1,32,Female,White,,2024-12-05_09h42.30.202,dissANT,2023.2.3,59.79845536642999,2024-12-05 09h48.45.939179 -0600,
blank.png,congRight.png,left,180,,,,,0,0,0,0,1,18,66,15,231.96556990034878,,,,,,,,,,231.95272359997034,231.96556990034878,232.365139500238,232.35105360019952,0.4,232.35112769994885,232.365139500238,232.365139500238,232.46530869975686,232.8654362000525,232.8654362000525,232.8654362000525,233.4179482003674,left,1,0.5374461002647877,None,,,,,,,,,,,,,,,,,,,,,,,,,,,,,,,,,,Prism,1,32,Female,White,,2024-12-05_09h42.30.202,dissANT,2023.2.3,59.79845536642999,2024-12-05 09h48.45.939179 -0600,
centre.png,congLeft.png,right,180,,,,,0,0,0,0,1,19,67,6,233.4315779004246,,,,,,,,,,233.41939929965883,233.4315779004246,233.88189219962806,233.86720180045813,0.45,233.86726120021194,233.88189219962806,233.88189219962806,233.982203300111,234.3821326997131,234.3821326997131,234.3821326997131,234.985227400437,right,1,0.5870005004107952,None,,,,,,,,,,,,,,,,,,,,,,,,,,,,,,,,,,Prism,1,32,Female,White,,2024-12-05_09h42.30.202,dissANT,2023.2.3,59.79845536642999,2024-12-05 09h48.45.939179 -0600,
upper.png,congRight.png,right,0,,,,,0,0,0,0,1,20,68,8,234.99850500002503,,,,,,,,,,234.98707250040025,234.99850500002503,235.548354299739,235.53407290019095,0.55,235.5341587997973,235.548354299739,235.548354299739,235.64846399985254,236.0479589002207,236.0479589002207,236.0479589002207,236.50053059961647,right,1,0.4391457000747323,None,,,,,,,,,,,,,,,,,,,,,,,,,,,,,,,,,,Prism,1,32,Female,White,,2024-12-05_09h42.30.202,dissANT,2023.2.3,59.79845536642999,2024-12-05 09h48.45.939179 -0600,
lower.png,congLeft.png,right,180,,,,,0,0,0,0,1,21,69,4,236.5151519002393,,,,,,,,,,236.5019188001752,236.5151519002393,236.91490819957107,236.90019229985774,0.4,236.90025930013508,236.91490819957107,236.91490819957107,237.01538589969277,237.41546660009772,237.41546660009772,237.41546660009772,237.86616060044616,right,1,0.4469079999253154,None,,,,,,,,,,,,,,,,,,,,,,,,,,,,,,,,,,Prism,1,32,Female,White,,2024-12-05_09h42.30.202,dissANT,2023.2.3,59.79845536642999,2024-12-05 09h48.45.939179 -0600,
blank.png,neutralLeft.png,right,180,,,,,0,0,0,0,1,22,70,39,237.88143550045788,,,,,,,,,,237.86723040044308,237.88143550045788,238.33175020013005,238.31724900007248,0.45,238.3173201000318,238.33175020013005,238.33175020013005,238.43147709965706,238.83213999960572,238.83213999960572,238.83213999960572,239.38576290011406,right,1,0.5497904997318983,None,,,,,,,,,,,,,,,,,,,,,,,,,,,,,,,,,,Prism,1,32,Female,White,,2024-12-05_09h42.30.202,dissANT,2023.2.3,59.79845536642999,2024-12-05 09h48.45.939179 -0600,
lower.png,neutralLeft.png,right,180,,,,,0,0,0,0,1,23,71,36,239.39858340006322,,,,,,,,,,239.38766590040177,239.39858340006322,239.798311999999,239.7839941000566,0.4,239.78406869992614,239.798311999999,239.798311999999,239.89860280044377,240.29839160013944,240.29839160013944,240.29839160013944,240.78439579997212,right,1,0.47896680049598217,None,,,,,,,,,,,,,,,,,,,,,,,,,,,,,,,,,,Prism,1,32,Female,White,,2024-12-05_09h42.30.202,dissANT,2023.2.3,59.79845536642999,2024-12-05 09h48.45.939179 -0600,
both.png,neutralLeft.png,right,180,,,,,0,0,0,0,1,24,72,37,240.79836039990187,,,,,,,,,,240.7859610999003,240.79836039990187,241.34821460023522,241.3331816997379,0.55,241.33324360009283,241.34821460023522,241.34821460023522,241.44840020034462,241.84841629955918,241.84841629955918,241.84841629955918,242.40076849982142,right,1,0.5462560998275876,None,,,,,,,,,,,,,,,,,,,,,,,,,,,,,,,,,,Prism,1,32,Female,White,,2024-12-05_09h42.30.202,dissANT,2023.2.3,59.79845536642999,2024-12-05 09h48.45.939179 -0600,
centre.png,neutralRight.png,right,0,,,,,0,0,0,0,1,25,73,42,242.41514510009438,,,,,,,,,,242.4022321999073,242.41514510009438,242.86522320006043,242.84997269976884,0.45,242.85002959985286,242.86522320006043,242.86522320006043,242.96533070039004,243.36529480013996,243.36529480013996,243.36529480013996,243.90091430023313,right,1,0.5203160997480154,None,,,,,,,,,,,,,,,,,,,,,,,,,,,,,,,,,,Prism,1,32,Female,White,,2024-12-05_09h42.30.202,dissANT,2023.2.3,59.79845536642999,2024-12-05 09h48.45.939179 -0600,
blank.png,neutralLeft.png,left,0,,,,,0,0,0,0,1,26,74,35,243.91531800013036,,,,,,,,,,243.90235190000385,243.91531800013036,244.4646849995479,244.44995510019362,0.55,244.45001429971308,244.4646849995479,244.4646849995479,244.5652641998604,244.9651504997164,244.9651504997164,244.9651504997164,245.5345528004691,left,1,0.5646828999742866,None,,,,,,,,,,,,,,,,,,,,,,,,,,,,,,,,,,Prism,1,32,Female,White,,2024-12-05_09h42.30.202,dissANT,2023.2.3,59.79845536642999,2024-12-05 09h48.45.939179 -0600,
both.png,incongRight.png,left,180,,,,,0,0,0,0,1,27,75,29,245.5481048002839,,,,,,,,,,245.53592150006443,245.5481048002839,245.9980982998386,245.98412149958313,0.45,245.98420500010252,245.9980982998386,245.9980982998386,246.0982542000711,246.4982805000618,246.4982805000618,246.4982805000618,247.33448810037225,left,1,0.8325918996706605,None,,,,,,,,,,,,,,,,,,,,,,,,,,,,,,,,,,Prism,1,32,Female,White,,2024-12-05_09h42.30.202,dissANT,2023.2.3,59.79845536642999,2024-12-05 09h48.45.939179 -0600,
lower.png,incongLeft.png,right,180,,,,,0,0,0,0,1,28,76,20,247.34797810018063,,,,,,,,,,247.33598710037768,247.34797810018063,247.8979093004018,247.88291930034757,0.55,247.88298489991575,247.8979093004018,247.8979093004018,247.9976573996246,248.39837079960853,248.39837079960853,248.39837079960853,249.08402340020984,right,1,0.6707082008942962,None,,,,,,,,,,,,,,,,,,,,,,,,,,,,,,,,,,Prism,1,32,Female,White,,2024-12-05_09h42.30.202,dissANT,2023.2.3,59.79845536642999,2024-12-05 09h48.45.939179 -0600,
centre.png,incongRight.png,left,180,,,,,0,0,0,0,1,29,77,30,249.09807279985398,,,,,,,,,,249.08559229969978,249.09807279985398,249.54818440042436,249.53381660021842,0.45,249.53388999961317,249.54818440042436,249.54818440042436,249.64779619965702,250.04833700042218,250.04833700042218,250.04833700042218,250.74993459973484,left,1,0.6956946002319455,None,,,,,,,,,,,,,,,,,,,,,,,,,,,,,,,,,,Prism,1,32,Female,White,,2024-12-05_09h42.30.202,dissANT,2023.2.3,59.79845536642999,2024-12-05 09h48.45.939179 -0600,
centre.png,neutralLeft.png,right,180,,,,,0,0,0,0,1,30,78,38,250.7650383003056,,,,,,,,,,250.7512798998505,250.7650383003056,251.26479330006987,251.24967859964818,0.5,251.24974390026182,251.26479330006987,251.26479330006987,251.3649928001687,251.76487009972334,251.76487009972334,251.76487009972334,252.3176602004096,right,1,0.5363244004547596,None,,,,,,,,,,,,,,,,,,,,,,,,,,,,,,,,,,Prism,1,32,Female,White,,2024-12-05_09h42.30.202,dissANT,2023.2.3,59.79845536642999,2024-12-05 09h48.45.939179 -0600,
both.png,incongLeft.png,right,180,,,,,0,0,0,0,1,31,79,21,252.33148279972374,,,,,,,,,,252.31929800007492,252.33148279972374,252.78160880040377,252.76663899980485,0.45,252.76670239958912,252.78160880040377,252.78160880040377,252.8806905997917,253.28156729973853,253.28156729973853,253.28156729973853,253.8173831999302,left,0,0.5216941004619002,None,,,,,,,,,,,,,,,,,,,,,,,,,,,,,,,,,,Prism,1,32,Female,White,,2024-12-05_09h42.30.202,dissANT,2023.2.3,59.79845536642999,2024-12-05 09h48.45.939179 -0600,
centre.png,congRight.png,right,0,,,,,0,0,0,0,1,32,80,10,253.83104350045323,,,,,,,,,,253.81893839966506,253.83104350045323,254.23112040013075,254.21462589967996,0.4,254.21464459970593,254.23112040013075,254.23112040013075,254.33142330031842,254.71491589955986,254.71491589955986,254.7313818000257,255.2671678001061,right,1,0.5433094995096326,None,,,,,,,,,,,,,,,,,,,,,,,,,,,,,,,,,,Prism,1,32,Female,White,,2024-12-05_09h42.30.202,dissANT,2023.2.3,59.79845536642999,2024-12-05 09h48.45.939179 -0600,
upper.png,neutralLeft.png,left,0,,,,,0,0,0,0,1,33,81,32,255.28076140023768,,,,,,,,,,255.26909979991615,255.28076140023768,255.78142249956727,255.76685130037367,0.5,255.76691900007427,255.78142249956727,255.78142249956727,255.88158529996872,256.2811062000692,256.2811062000692,256.2811062000692,256.8006354002282,left,1,0.5076187001541257,None,,,,,,,,,,,,,,,,,,,,,,,,,,,,,,,,,,Prism,1,32,Female,White,,2024-12-05_09h42.30.202,dissANT,2023.2.3,59.79845536642999,2024-12-05 09h48.45.939179 -0600,
centre.png,incongLeft.png,left,0,,,,,0,0,0,0,1,34,82,18,256.8146478999406,,,,,,,,,,256.8022600002587,256.8146478999406,257.3144067004323,257.30016059987247,0.5,257.3002329999581,257.3144067004323,257.3144067004323,257.4149404997006,257.81501370016485,257.81501370016485,257.81501370016485,258.5523757999763,left,1,0.7200853992253542,None,,,,,,,,,,,,,,,,,,,,,,,,,,,,,,,,,,Prism,1,32,Female,White,,2024-12-05_09h42.30.202,dissANT,2023.2.3,59.79845536642999,2024-12-05 09h48.45.939179 -0600,
both.png,incongLeft.png,left,0,,,,,0,0,0,0,1,35,83,17,258.5648584999144,,,,,,,,,,258.55404340010136,258.5648584999144,259.0146655999124,258.9990381002426,0.45,258.9990828000009,259.0146655999124,259.0146655999124,259.11503359954804,259.5147118996829,259.5147118996829,259.5147118996829,260.1837710002437,left,1,0.6544906003400683,None,,,,,,,,,,,,,,,,,,,,,,,,,,,,,,,,,,Prism,1,32,Female,White,,2024-12-05_09h42.30.202,dissANT,2023.2.3,59.79845536642999,2024-12-05 09h48.45.939179 -0600,
both.png,neutralRight.png,left,180,,,,,0,0,0,0,1,36,84,45,260.1979395998642,,,,,,,,,,260.18526840023696,260.1979395998642,260.64807370025665,260.63304749969393,0.45,260.63310889992863,260.64807370025665,260.64807370025665,260.7473675003275,261.14824290014803,261.14824290014803,261.14824290014803,261.8480535997078,left,1,0.6963734002783895,None,,,,,,,,,,,,,,,,,,,,,,,,,,,,,,,,,,Prism,1,32,Female,White,,2024-12-05_09h42.30.202,dissANT,2023.2.3,59.79845536642999,2024-12-05 09h48.45.939179 -0600,
blank.png,neutralRight.png,right,0,,,,,0,0,0,0,1,37,85,43,261.8639829000458,,,,,,,,,,261.8483352996409,261.8639829000458,262.2646513003856,262.2487017000094,0.4,262.24874669965357,262.2646513003856,262.2646513003856,262.3646425995976,262.74792880006135,262.74792880006135,262.7643555998802,263.2838762998581,right,1,0.5291651003062725,None,,,,,,,,,,,,,,,,,,,,,,,,,,,,,,,,,,Prism,1,32,Female,White,,2024-12-05_09h42.30.202,dissANT,2023.2.3,59.79845536642999,2024-12-05 09h48.45.939179 -0600,
lower.png,neutralRight.png,left,180,,,,,0,0,0,0,1,38,86,44,263.2978330999613,,,,,,,,,,263.28558610007167,263.2978330999613,263.8477456001565,263.83293159957975,0.55,263.8329905997962,263.8477456001565,263.8477456001565,263.9479032997042,264.34784820023924,264.34784820023924,264.34784820023924,264.8675280995667,left,1,0.5166271002963185,None,,,,,,,,,,,,,,,,,,,,,,,,,,,,,,,,,,Prism,1,32,Female,White,,2024-12-05_09h42.30.202,dissANT,2023.2.3,59.79845536642999,2024-12-05 09h48.45.939179 -0600,
upper.png,congLeft.png,left,0,,,,,0,0,0,0,1,39,87,0,264.88127239979804,,,,,,,,,,264.8691039001569,264.88127239979804,265.3311299001798,265.3162257997319,0.45,265.31628409959376,265.3311299001798,265.3311299001798,265.43094460014254,265.8308148998767,265.8308148998767,265.8308148998767,266.28344320040196,left,1,0.4438113998621702,None,,,,,,,,,,,,,,,,,,,,,,,,,,,,,,,,,,Prism,1,32,Female,White,,2024-12-05_09h42.30.202,dissANT,2023.2.3,59.79845536642999,2024-12-05 09h48.45.939179 -0600,
centre.png,incongLeft.png,right,180,,,,,0,0,0,0,1,40,88,22,266.29764879960567,,,,,,,,,,266.2852808004245,266.29764879960567,266.6976509997621,266.6833362998441,0.4,266.6834078002721,266.6976509997621,266.6976509997621,266.79769919998944,267.19814120046794,267.19814120046794,267.19814120046794,267.91690499987453,right,1,0.7119224993512034,None,,,,,,,,,,,,,,,,,,,,,,,,,,,,,,,,,,Prism,1,32,Female,White,,2024-12-05_09h42.30.202,dissANT,2023.2.3,59.79845536642999,2024-12-05 09h48.45.939179 -0600,
centre.png,neutralRight.png,left,180,,,,,0,0,0,0,1,41,89,46,267.93128610029817,,,,,,,,,,267.91823189985007,267.93128610029817,268.43101560045034,268.4166837995872,0.5,268.41676750034094,268.43101560045034,268.43101560045034,268.53129400033504,268.9312172997743,268.9312172997743,268.9312172997743,269.58457839954644,left,1,0.6498397998511791,None,,,,,,,,,,,,,,,,,,,,,,,,,,,,,,,,,,Prism,1,32,Female,White,,2024-12-05_09h42.30.202,dissANT,2023.2.3,59.79845536642999,2024-12-05 09h48.45.939179 -0600,
both.png,neutralRight.png,right,0,,,,,0,0,0,0,1,42,90,41,269.59720470011234,,,,,,,,,,269.5861994996667,269.59720470011234,270.1476900000125,270.1337869996205,0.55,270.13387160003185,270.1476900000125,270.1476900000125,270.2476816996932,270.6474313996732,270.6474313996732,270.6474313996732,271.11833850014955,right,1,0.4592519998550415,None,,,,,,,,,,,,,,,,,,,,,,,,,,,,,,,,,,Prism,1,32,Female,White,,2024-12-05_09h42.30.202,dissANT,2023.2.3,59.79845536642999,2024-12-05 09h48.45.939179 -0600,
blank.png,congRight.png,right,0,,,,,0,0,0,0,1,43,91,11,271.13131759967655,,,,,,,,,,271.1201748000458,271.13131759967655,271.6306277997792,271.6161236995831,0.5,271.6161799998954,271.6306277997792,271.6306277997792,271.73131380043924,272.1311665996909,272.1311665996909,272.1311665996909,272.783473899588,right,1,0.6491008000448346,None,,,,,,,,,,,,,,,,,,,,,,,,,,,,,,,,,,Prism,1,32,Female,White,,2024-12-05_09h42.30.202,dissANT,2023.2.3,59.79845536642999,2024-12-05 09h48.45.939179 -0600,
lower.png,incongRight.png,left,180,,,,,0,0,0,0,1,44,92,28,272.7975473003462,,,,,,,,,,272.78467120043933,272.7975473003462,273.29750620014966,273.28342889994383,0.5,273.28351220022887,273.29750620014966,273.29750620014966,273.3975903997198,273.7977304998785,273.7977304998785,273.7977304998785,274.4664056003094,left,1,0.6669614994898438,None,,,,,,,,,,,,,,,,,,,,,,,,,,,,,,,,,,Prism,1,32,Female,White,,2024-12-05_09h42.30.202,dissANT,2023.2.3,59.79845536642999,2024-12-05 09h48.45.939179 -0600,
blank.png,neutralRight.png,left,180,,,,,0,0,0,0,1,45,93,47,274.4805685998872,,,,,,,,,,274.4675164995715,274.4805685998872,275.0309653002769,275.01599960029125,0.55,275.0160595001653,275.0309653002769,275.0309653002769,275.130985699594,275.5313063999638,275.5313063999638,275.5313063999638,276.21687819994986,left,1,0.6686346000060439,None,,,,,,,,,,,,,,,,,,,,,,,,,,,,,,,,,,Prism,1,32,Female,White,,2024-12-05_09h42.30.202,dissANT,2023.2.3,59.79845536642999,2024-12-05 09h48.45.939179 -0600,
centre.png,congRight.png,left,180,,,,,0,0,0,0,1,46,94,14,276.23101839981973,,,,,,,,,,276.2183514004573,276.23101839981973,276.730763300322,276.71620040014386,0.5,276.7162645999342,276.730763300322,276.730763300322,276.8311537001282,277.2311874004081,277.2311874004081,277.2311874004081,277.83322860021144,left,1,0.5927926003932953,None,,,,,,,,,,,,,,,,,,,,,,,,,,,,,,,,,,Prism,1,32,Female,White,,2024-12-05_09h42.30.202,dissANT,2023.2.3,59.79845536642999,2024-12-05 09h48.45.939179 -0600,
both.png,congRight.png,right,0,,,,,0,0,0,0,1,47,95,9,277.84749670047313,,,,,,,,,,277.8350636996329,277.84749670047313,278.39741189964116,278.3828154001385,0.55,278.3828875999898,278.39741189964116,278.39741189964116,278.497559200041,278.8976539000869,278.8976539000869,278.8976539000869,279.4829425998032,right,1,0.5716813998296857,None,,,,,,,,,,,,,,,,,,,,,,,,,,,,,,,,,,Prism,1,32,Female,White,,2024-12-05_09h42.30.202,dissANT,2023.2.3,59.79845536642999,2024-12-05 09h48.45.939179 -0600,
,,,,,,,,0,0,0,0,,,,,,,,,,,,,,,,,,,,,,,,,,,,,,,,,,,,,,,,,,,279.48414240032434,279.49748849961907,279.49748849961907,286.23363600019366,,,,,,,,,,,,,,,,,,,Prism,1,32,Female,White,,2024-12-05_09h42.30.202,dissANT,2023.2.3,59.79845536642999,2024-12-05 09h48.45.939179 -0600,
centre.png,incongRight.png,left,180,,,,,1,0,1,0,0,0,0,30,286.2590781999752,,,,,,,,,,286.2549801999703,286.2590781999752,286.6637223996222,286.6488327998668,0.4,286.6488955002278,286.6637223996222,286.6637223996222,286.76407120004296,287.1640186998993,287.1640186998993,287.1640186998993,288.03087909985334,left,1,0.855299599468708,None,,,,,,,,,,,,,,,,,,,,,,,,,,,,,,,,,,Prism,1,32,Female,White,,2024-12-05_09h42.30.202,dissANT,2023.2.3,59.79845536642999,2024-12-05 09h48.45.939179 -0600,
blank.png,incongRight.png,left,180,,,,,1,0,1,0,0,1,1,31,288.04678739979863,,,,,,,,,,288.0317291999236,288.04678739979863,288.4473457997665,288.4323656996712,0.4,288.4324313001707,288.4473457997665,288.4473457997665,288.54729219991714,288.94739910028875,288.94739910028875,288.94739910028875,289.66623769979924,left,1,0.7084149997681379,None,,,,,,,,,,,,,,,,,,,,,,,,,,,,,,,,,,Prism,1,32,Female,White,,2024-12-05_09h42.30.202,dissANT,2023.2.3,59.79845536642999,2024-12-05 09h48.45.939179 -0600,
blank.png,congRight.png,right,0,,,,,1,0,1,0,0,2,2,11,289.68069600034505,,,,,,,,,,289.66797690000385,289.68069600034505,290.0803789002821,290.0644338000566,0.4,290.0644648997113,290.0803789002821,290.0803789002821,290.180126699619,290.5639316998422,290.5639316998422,290.5805829996243,291.1840401003137,right,1,0.6175886997953057,None,,,,,,,,,,,,,,,,,,,,,,,,,,,,,,,,,,Prism,1,32,Female,White,,2024-12-05_09h42.30.202,dissANT,2023.2.3,59.79845536642999,2024-12-05 09h48.45.939179 -0600,
both.png,incongLeft.png,right,180,,,,,1,0,1,0,0,3,3,21,291.1972057996318,,,,,,,,,,291.1854039998725,291.1972057996318,291.69730420038104,291.6824572002515,0.5,291.6825101003051,291.69730420038104,291.69730420038104,291.79671220015734,292.1973729999736,292.1973729999736,292.1973729999736,293.1656457995996,right,1,0.9515284998342395,None,,,,,,,,,,,,,,,,,,,,,,,,,,,,,,,,,,Prism,1,32,Female,White,,2024-12-05_09h42.30.202,dissANT,2023.2.3,59.79845536642999,2024-12-05 09h48.45.939179 -0600,
blank.png,neutralLeft.png,right,180,,,,,1,0,1,0,0,4,4,39,293.1806001998484,,,,,,,,,,293.1670882003382,293.1806001998484,293.73052459955215,293.716120400466,0.55,293.71619320008904,293.73052459955215,293.73052459955215,293.83055500034243,294.2305268999189,294.2305268999189,294.2305268999189,294.76670840010047,right,1,0.5226734997704625,None,,,,,,,,,,,,,,,,,,,,,,,,,,,,,,,,,,Prism,1,32,Female,White,,2024-12-05_09h42.30.202,dissANT,2023.2.3,59.79845536642999,2024-12-05 09h48.45.939179 -0600,
upper.png,neutralRight.png,right,0,,,,,1,0,1,0,0,5,5,40,294.7804960999638,,,,,,,,,,294.76860969979316,294.7804960999638,295.2303906995803,295.2152703003958,0.45,295.21533070039004,295.2303906995803,295.2303906995803,295.3305177995935,295.7307470003143,295.7307470003143,295.7307470003143,296.2148211998865,right,1,0.47442909982055426,None,,,,,,,,,,,,,,,,,,,,,,,,,,,,,,,,,,Prism,1,32,Female,White,,2024-12-05_09h42.30.202,dissANT,2023.2.3,59.79845536642999,2024-12-05 09h48.45.939179 -0600,
blank.png,neutralRight.png,left,180,,,,,1,0,1,0,0,6,6,47,296.23034899961203,,,,,,,,,,296.2162587996572,296.23034899961203,296.6803403003141,296.66600329987705,0.45,296.66607979964465,296.6803403003141,296.6803403003141,296.78069320041686,297.18050330039114,297.18050330039114,297.18050330039114,297.73302599973977,left,1,0.5420826002955437,None,,,,,,,,,,,,,,,,,,,,,,,,,,,,,,,,,,Prism,1,32,Female,White,,2024-12-05_09h42.30.202,dissANT,2023.2.3,59.79845536642999,2024-12-05 09h48.45.939179 -0600,
both.png,congRight.png,right,0,,,,,1,0,1,0,0,7,7,9,297.74662250000983,,,,,,,,,,297.73447709996253,297.74662250000983,298.14698779955506,298.1316101998091,0.4,298.1316553000361,298.14698779955506,298.14698779955506,298.2472198996693,298.6469595003873,298.6469595003873,298.6469595003873,299.14971010014415,right,1,0.49780299980193377,None,,,,,,,,,,,,,,,,,,,,,,,,,,,,,,,,,,Prism,1,32,Female,White,,2024-12-05_09h42.30.202,dissANT,2023.2.3,59.79845536642999,2024-12-05 09h48.45.939179 -0600,
centre.png,neutralLeft.png,left,0,,,,,1,0,1,0,0,8,8,34,299.1637124000117,,,,,,,,,,299.15133399982005,299.1637124000117,299.713708399795,299.69915369991213,0.55,299.69922690000385,299.713708399795,299.713708399795,299.8137966999784,300.21360460016876,300.21360460016876,300.21360460016876,300.78296000044793,left,1,0.5606156000867486,None,,,,,,,,,,,,,,,,,,,,,,,,,,,,,,,,,,Prism,1,32,Female,White,,2024-12-05_09h42.30.202,dissANT,2023.2.3,59.79845536642999,2024-12-05 09h48.45.939179 -0600,
centre.png,incongLeft.png,left,0,,,,,1,0,1,0,0,9,9,18,300.7970692999661,,,,,,,,,,300.78443930018693,300.7970692999661,301.19712540041655,301.1817861003801,0.4,301.18183939997107,301.19712540041655,301.19712540041655,301.2971662003547,301.6970312995836,301.6970312995836,301.6970312995836,302.40012970007956,left,1,0.6933164000511169,None,,,,,,,,,,,,,,,,,,,,,,,,,,,,,,,,,,Prism,1,32,Female,White,,2024-12-05_09h42.30.202,dissANT,2023.2.3,59.79845536642999,2024-12-05 09h48.45.939179 -0600,
blank.png,incongLeft.png,left,0,,,,,1,0,1,0,0,10,10,19,302.41372469998896,,,,,,,,,,302.4020160995424,302.41372469998896,302.813534299843,302.7992615001276,0.4,302.7993529997766,302.813534299843,302.813534299843,302.9136643996462,303.31341790035367,303.31341790035367,303.31341790035367,303.9332109997049,left,1,0.6171548999845982,None,,,,,,,,,,,,,,,,,,,,,,,,,,,,,,,,,,Prism,1,32,Female,White,,2024-12-05_09h42.30.202,dissANT,2023.2.3,59.79845536642999,2024-12-05 09h48.45.939179 -0600,
centre.png,neutralLeft.png,right,180,,,,,1,0,1,0,0,11,11,38,303.9470036998391,,,,,,,,,,303.9346324997023,303.9470036998391,304.3965402999893,304.3817101996392,0.45,304.3817686997354,304.3965402999893,304.3965402999893,304.49684119969606,304.89699569996446,304.89699569996446,304.89699569996446,305.46628690045327,right,1,0.5625077001750469,None,,,,,,,,,,,,,,,,,,,,,,,,,,,,,,,,,,Prism,1,32,Female,White,,2024-12-05_09h42.30.202,dissANT,2023.2.3,59.79845536642999,2024-12-05 09h48.45.939179 -0600,
blank.png,neutralRight.png,right,0,,,,,1,0,1,0,0,12,12,43,305.48035989981145,,,,,,,,,,305.46771769970655,305.48035989981145,305.88038900028914,305.86558560002595,0.4,305.86565169971436,305.88038900028914,305.88038900028914,305.9802748002112,306.3802367001772,306.3802367001772,306.3802367001772,306.9665531003848,right,1,0.5834387000650167,None,,,,,,,,,,,,,,,,,,,,,,,,,,,,,,,,,,Prism,1,32,Female,White,,2024-12-05_09h42.30.202,dissANT,2023.2.3,59.79845536642999,2024-12-05 09h48.45.939179 -0600,
both.png,incongRight.png,right,0,,,,,1,0,1,0,0,13,13,25,306.98032649978995,,,,,,,,,,306.9680696995929,306.98032649978995,307.4796834997833,307.4641901003197,0.5,307.46423939988017,307.4796834997833,307.4796834997833,307.58030730020255,307.9638313995674,307.9638313995674,307.9796401998028,308.5996084995568,right,1,0.618300499394536,None,,,,,,,,,,,,,,,,,,,,,,,,,,,,,,,,,,Prism,1,32,Female,White,,2024-12-05_09h42.30.202,dissANT,2023.2.3,59.79845536642999,2024-12-05 09h48.45.939179 -0600,
lower.png,neutralRight.png,left,180,,,,,1,0,1,0,0,14,14,44,308.61370479967445,,,,,,,,,,308.6012508003041,308.61370479967445,309.0133191999048,308.99849219992757,0.4,308.9985739002004,309.0133191999048,309.0133191999048,309.1137100001797,309.5130409002304,309.5130409002304,309.5130409002304,310.04998490028083,left,1,0.5324804997071624,None,,,,,,,,,,,,,,,,,,,,,,,,,,,,,,,,,,Prism,1,32,Female,White,,2024-12-05_09h42.30.202,dissANT,2023.2.3,59.79845536642999,2024-12-05 09h48.45.939179 -0600,
centre.png,neutralRight.png,left,180,,,,,1,0,1,0,0,15,15,46,310.0634898999706,,,,,,,,,,310.05169610027224,310.0634898999706,310.5636772001162,310.5470442995429,0.5,310.54707400035113,310.5636772001162,310.5636772001162,310.66359720006585,311.04675479978323,311.04675479978323,311.0635174997151,311.73244039993733,left,1,0.6760553997009993,None,,,,,,,,,,,,,,,,,,,,,,,,,,,,,,,,,,Prism,1,32,Female,White,,2024-12-05_09h42.30.202,dissANT,2023.2.3,59.79845536642999,2024-12-05 09h48.45.939179 -0600,
upper.png,congLeft.png,left,0,,,,,1,0,1,0,0,16,16,0,311.7464848002419,,,,,,,,,,311.73385419975966,311.7464848002419,312.29663740005344,312.28190539963543,0.55,312.2819662997499,312.29663740005344,312.29663740005344,312.39672989957035,312.7970249997452,312.7970249997452,312.7970249997452,313.3320091003552,left,1,0.525322999805212,None,,,,,,,,,,,,,,,,,,,,,,,,,,,,,,,,,,Prism,1,32,Female,White,,2024-12-05_09h42.30.202,dissANT,2023.2.3,59.79845536642999,2024-12-05 09h48.45.939179 -0600,
blank.png,incongRight.png,right,0,,,,,1,0,1,0,0,17,17,27,313.3467691997066,,,,,,,,,,313.3329418003559,313.3467691997066,313.79668749962,313.78146169986576,0.45,313.7815167000517,313.79668749962,313.79668749962,313.89663709979504,314.2964033000171,314.2964033000171,314.2964033000171,315.04900259990245,right,1,0.7476765997707844,None,,,,,,,,,,,,,,,,,,,,,,,,,,,,,,,,,,Prism,1,32,Female,White,,2024-12-05_09h42.30.202,dissANT,2023.2.3,59.79845536642999,2024-12-05 09h48.45.939179 -0600,
both.png,neutralRight.png,left,180,,,,,1,0,1,0,0,18,18,45,315.0634770998731,,,,,,,,,,315.05032599996775,315.0634770998731,315.5134442001581,315.49809020012617,0.45,315.49813659954816,315.5134442001581,315.5134442001581,315.6133837001398,316.0134600000456,316.0134600000456,316.0134600000456,316.6322587998584,left,1,0.6071854000911117,None,,,,,,,,,,,,,,,,,,,,,,,,,,,,,,,,,,Prism,1,32,Female,White,,2024-12-05_09h42.30.202,dissANT,2023.2.3,59.79845536642999,2024-12-05 09h48.45.939179 -0600,
blank.png,congLeft.png,right,180,,,,,1,0,1,0,0,19,19,7,316.6464526997879,,,,,,,,,,316.6336826002225,316.6464526997879,317.09640110004693,317.0812900001183,0.45,317.08134820032865,317.09640110004693,317.09640110004693,317.19682530034333,317.59688640013337,317.59688640013337,317.59688640013337,318.31656030006707,right,1,0.7155194999650121,None,,,,,,,,,,,,,,,,,,,,,,,,,,,,,,,,,,Prism,1,32,Female,White,,2024-12-05_09h42.30.202,dissANT,2023.2.3,59.79845536642999,2024-12-05 09h48.45.939179 -0600,
centre.png,incongLeft.png,right,180,,,,,1,0,1,0,0,20,20,22,318.3300740001723,,,,,,,,,,318.31809379998595,318.3300740001723,318.8799713999033,318.8648086003959,0.55,318.86486859992146,318.8799713999033,318.8799713999033,318.9801532998681,319.37997670006007,319.37997670006007,319.37997670006007,320.14786520041525,right,1,0.7556796995922923,None,,,,,,,,,,,,,,,,,,,,,,,,,,,,,,,,,,Prism,1,32,Female,White,,2024-12-05_09h42.30.202,dissANT,2023.2.3,59.79845536642999,2024-12-05 09h48.45.939179 -0600,
centre.png,neutralRight.png,right,0,,,,,1,0,1,0,0,21,21,42,320.16284300014377,,,,,,,,,,320.14895549975336,320.16284300014377,320.5632747998461,320.5470065996051,0.4,320.54703649971634,320.5632747998461,320.5632747998461,320.66334480047226,321.04685049969703,321.04685049969703,321.0632822997868,321.64920959994197,right,1,0.5935712000355124,None,,,,,,,,,,,,,,,,,,,,,,,,,,,,,,,,,,Prism,1,32,Female,White,,2024-12-05_09h42.30.202,dissANT,2023.2.3,59.79845536642999,2024-12-05 09h48.45.939179 -0600,
both.png,congLeft.png,right,180,,,,,1,0,1,0,0,22,22,5,321.66301050037146,,,,,,,,,,321.6506409002468,321.66301050037146,322.06336859986186,322.04914849996567,0.4,322.0492172995582,322.06336859986186,322.06336859986186,322.1629475997761,322.56302670016885,322.56302670016885,322.56302670016885,323.1169873997569,right,1,0.5507843997329473,None,,,,,,,,,,,,,,,,,,,,,,,,,,,,,,,,,,Prism,1,32,Female,White,,2024-12-05_09h42.30.202,dissANT,2023.2.3,59.79845536642999,2024-12-05 09h48.45.939179 -0600,
blank.png,congRight.png,left,180,,,,,1,0,1,0,0,23,23,15,323.12980860006064,,,,,,,,,,323.11844670027494,323.12980860006064,323.57978629972786,323.56477139983326,0.45,323.56483490020037,323.57978629972786,323.57978629972786,323.67999480012804,324.0798516003415,324.0798516003415,324.0798516003415,324.6990983998403,left,1,0.6051116995513439,None,,,,,,,,,,,,,,,,,,,,,,,,,,,,,,,,,,Prism,1,32,Female,White,,2024-12-05_09h42.30.202,dissANT,2023.2.3,59.79845536642999,2024-12-05 09h48.45.939179 -0600,
both.png,incongLeft.png,left,0,,,,,1,0,1,0,0,24,24,17,324.7139319004491,,,,,,,,,,324.700535999611,324.7139319004491,325.2630537003279,325.2482069004327,0.55,325.24826600030065,325.2630537003279,325.2630537003279,325.36318910028785,325.7628790996969,325.7628790996969,325.7628790996969,326.5833504004404,left,1,0.8167982008308172,None,,,,,,,,,,,,,,,,,,,,,,,,,,,,,,,,,,Prism,1,32,Female,White,,2024-12-05_09h42.30.202,dissANT,2023.2.3,59.79845536642999,2024-12-05 09h48.45.939179 -0600,
both.png,neutralLeft.png,left,0,,,,,1,0,1,0,0,25,25,33,326.5962709998712,,,,,,,,,,326.5848756004125,326.5962709998712,326.9963974999264,326.9799527004361,0.4,326.9799877004698,326.9963974999264,326.9963974999264,327.0963257001713,327.47986389975995,327.47986389975995,327.4964385004714,327.9822418000549,left,1,0.5003645997494459,None,,,,,,,,,,,,,,,,,,,,,,,,,,,,,,,,,,Prism,1,32,Female,White,,2024-12-05_09h42.30.202,dissANT,2023.2.3,59.79845536642999,2024-12-05 09h48.45.939179 -0600,
lower.png,neutralLeft.png,right,180,,,,,1,0,1,0,0,26,26,36,327.99612480029464,,,,,,,,,,327.98343130014837,327.99612480029464,328.44635329954326,328.4314572000876,0.45,328.43151709996164,328.44635329954326,328.44635329954326,328.54640849959105,328.9459702000022,328.9459702000022,328.9459702000022,329.4821282001212,right,1,0.5310399001464248,None,,,,,,,,,,,,,,,,,,,,,,,,,,,,,,,,,,Prism,1,32,Female,White,,2024-12-05_09h42.30.202,dissANT,2023.2.3,59.79845536642999,2024-12-05 09h48.45.939179 -0600,
centre.png,congLeft.png,left,0,,,,,1,0,1,0,0,27,27,2,329.4962609997019,,,,,,,,,,329.48342330008745,329.4962609997019,329.89627609960735,329.88121350016445,0.4,329.8812696998939,329.89627609960735,329.89627609960735,329.9957064995542,330.3965683002025,330.3965683002025,330.3965683002025,330.9155711000785,left,1,0.5052056992426515,None,,,,,,,,,,,,,,,,,,,,,,,,,,,,,,,,,,Prism,1,32,Female,White,,2024-12-05_09h42.30.202,dissANT,2023.2.3,59.79845536642999,2024-12-05 09h48.45.939179 -0600,
centre.png,congLeft.png,right,180,,,,,1,0,1,0,0,28,28,6,330.9296581996605,,,,,,,,,,330.9172822004184,330.9296581996605,331.4796700999141,331.4648639000952,0.55,331.4649369996041,331.4796700999141,331.4796700999141,331.57974740024656,331.97948869969696,331.97948869969696,331.97948869969696,332.84958919975907,right,1,0.8598994007334113,None,,,,,,,,,,,,,,,,,,,,,,,,,,,,,,,,,,Prism,1,32,Female,White,,2024-12-05_09h42.30.202,dissANT,2023.2.3,59.79845536642999,2024-12-05 09h48.45.939179 -0600,
upper.png,neutralLeft.png,left,0,,,,,1,0,1,0,0,29,29,32,332.8629374001175,,,,,,,,,,332.85098319966346,332.8629374001175,333.4130304995924,333.3985269004479,0.55,333.3985991999507,333.4130304995924,333.4130304995924,333.51302279997617,333.9130905997008,333.9130905997008,333.9130905997008,334.4329565996304,left,1,0.5056689996272326,None,,,,,,,,,,,,,,,,,,,,,,,,,,,,,,,,,,Prism,1,32,Female,White,,2024-12-05_09h42.30.202,dissANT,2023.2.3,59.79845536642999,2024-12-05 09h48.45.939179 -0600,
centre.png,congRight.png,right,0,,,,,1,0,1,0,0,30,30,10,334.4460463998839,,,,,,,,,,334.43482960015535,334.4460463998839,334.89602820016444,334.8816921999678,0.45,334.8817790998146,334.89602820016444,334.89602820016444,334.9962357999757,335.39640640001744,335.39640640001744,335.39640640001744,336.0657756999135,right,1,0.6526830000802875,None,,,,,,,,,,,,,,,,,,,,,,,,,,,,,,,,,,Prism,1,32,Female,White,,2024-12-05_09h42.30.202,dissANT,2023.2.3,59.79845536642999,2024-12-05 09h48.45.939179 -0600,
blank.png,neutralLeft.png,left,0,,,,,1,0,1,0,0,31,31,35,336.0797300999984,,,,,,,,,,336.0668868999928,336.0797300999984,336.52952599991113,336.51485809963197,0.45,336.51493110042065,336.52952599991113,336.52952599991113,336.6294314004481,337.029846499674,337.029846499674,337.029846499674,337.7297307997942,left,1,0.6978537999093533,None,,,,,,,,,,,,,,,,,,,,,,,,,,,,,,,,,,Prism,1,32,Female,White,,2024-12-05_09h42.30.202,dissANT,2023.2.3,59.79845536642999,2024-12-05 09h48.45.939179 -0600,
both.png,neutralLeft.png,right,180,,,,,1,0,1,0,0,32,32,37,337.74565900024027,,,,,,,,,,337.7299806000665,337.74565900024027,338.29608879983425,338.2821717001498,0.55,338.28225069958717,338.29608879983425,338.29608879983425,338.39623180031776,338.79593420028687,338.79593420028687,338.79593420028687,339.4320270996541,right,1,0.6240480998530984,None,,,,,,,,,,,,,,,,,,,,,,,,,,,,,,,,,,Prism,1,32,Female,White,,2024-12-05_09h42.30.202,dissANT,2023.2.3,59.79845536642999,2024-12-05 09h48.45.939179 -0600,
lower.png,congLeft.png,right,180,,,,,1,0,1,0,0,33,33,4,339.4460290996358,,,,,,,,,,339.43360900040716,339.4460290996358,339.8460892997682,339.831128699705,0.4,339.8311820998788,339.8460892997682,339.8460892997682,339.94589279964566,340.3456750996411,340.3456750996411,340.3456750996411,340.83191149961203,right,1,0.47187629994004965,None,,,,,,,,,,,,,,,,,,,,,,,,,,,,,,,,,,Prism,1,32,Female,White,,2024-12-05_09h42.30.202,dissANT,2023.2.3,59.79845536642999,2024-12-05 09h48.45.939179 -0600,
upper.png,incongRight.png,right,0,,,,,1,0,1,0,0,34,34,24,340.8461669003591,,,,,,,,,,340.8332355003804,340.8461669003591,341.3459748001769,341.3310182001442,0.5,341.3310792995617,341.3459748001769,341.3459748001769,341.4461372997612,341.845631999895,341.845631999895,341.845631999895,342.4147081002593,right,1,0.5550631005316973,None,,,,,,,,,,,,,,,,,,,,,,,,,,,,,,,,,,Prism,1,32,Female,White,,2024-12-05_09h42.30.202,dissANT,2023.2.3,59.79845536642999,2024-12-05 09h48.45.939179 -0600,
upper.png,congRight.png,right,0,,,,,1,0,1,0,0,35,35,8,342.4288892997429,,,,,,,,,,342.41620589978993,342.4288892997429,342.9788261000067,342.96249559987336,0.55,342.9625177998096,342.9788261000067,342.9788261000067,343.07905070018023,343.4628050001338,343.4628050001338,343.47943060006946,343.9153065998107,right,1,0.4378693997859955,None,,,,,,,,,,,,,,,,,,,,,,,,,,,,,,,,,,Prism,1,32,Female,White,,2024-12-05_09h42.30.202,dissANT,2023.2.3,59.79845536642999,2024-12-05 09h48.45.939179 -0600,
lower.png,incongLeft.png,right,180,,,,,1,0,1,0,0,36,36,20,343.92926899995655,,,,,,,,,,343.91684660036117,343.92926899995655,344.3294265996665,344.31315790023655,0.4,344.31319809984416,344.3294265996665,344.3294265996665,344.42945710010827,344.8127389997244,344.8127389997244,344.8288495000452,345.81625519972295,right,1,0.9965973999351263,None,,,,,,,,,,,,,,,,,,,,,,,,,,,,,,,,,,Prism,1,32,Female,White,,2024-12-05_09h42.30.202,dissANT,2023.2.3,59.79845536642999,2024-12-05 09h48.45.939179 -0600,
blank.png,congLeft.png,left,0,,,,,1,0,1,0,0,37,37,3,345.82942060008645,,,,,,,,,,345.81811140011996,345.82942060008645,346.3292135996744,346.31384530011564,0.5,346.313903699629,346.3292135996744,346.3292135996744,346.4293582998216,346.8288588998839,346.8288588998839,346.8288588998839,347.3804411003366,left,1,0.549617700278759,None,,,,,,,,,,,,,,,,,,,,,,,,,,,,,,,,,,Prism,1,32,Female,White,,2024-12-05_09h42.30.202,dissANT,2023.2.3,59.79845536642999,2024-12-05 09h48.45.939179 -0600,
both.png,congLeft.png,left,0,,,,,1,0,1,0,0,38,38,1,347.3952085999772,,,,,,,,,,347.3816496003419,347.3952085999772,347.7957119997591,347.7818115996197,0.4,347.78189670015126,347.7957119997591,347.7957119997591,347.89597809966654,348.2959954999387,348.2959954999387,348.2959954999387,348.9332490004599,left,1,0.6342953993007541,None,,,,,,,,,,,,,,,,,,,,,,,,,,,,,,,,,,Prism,1,32,Female,White,,2024-12-05_09h42.30.202,dissANT,2023.2.3,59.79845536642999,2024-12-05 09h48.45.939179 -0600,
upper.png,incongLeft.png,left,0,,,,,1,0,1,0,0,39,39,16,348.94567629974335,,,,,,,,,,348.93492249958217,348.94567629974335,349.39564879983664,349.3809249000624,0.45,349.3809847002849,349.39564879983664,349.39564879983664,349.4958894997835,349.89624300040305,349.89624300040305,349.89624300040305,350.4138104002923,left,1,0.5024731997400522,None,,,,,,,,,,,,,,,,,,,,,,,,,,,,,,,,,,Prism,1,32,Female,White,,2024-12-05_09h42.30.202,dissANT,2023.2.3,59.79845536642999,2024-12-05 09h48.45.939179 -0600,
both.png,congRight.png,left,180,,,,,1,0,1,0,0,40,40,13,350.42862330004573,,,,,,,,,,350.4150433000177,350.42862330004573,350.92906130012125,350.9128831997514,0.5,350.91291449964046,350.92906130012125,350.92906130012125,351.0292338002473,351.4125786004588,351.4125786004588,351.42931780032814,351.9475592998788,left,1,0.5249022003263235,None,,,,,,,,,,,,,,,,,,,,,,,,,,,,,,,,,,Prism,1,32,Female,White,,2024-12-05_09h42.30.202,dissANT,2023.2.3,59.79845536642999,2024-12-05 09h48.45.939179 -0600,
centre.png,incongRight.png,right,0,,,,,1,0,1,0,0,41,41,26,351.9624723000452,,,,,,,,,,351.948818099685,351.9624723000452,352.3624769002199,352.347847700119,0.4,352.34793180041015,352.3624769002199,352.3624769002199,352.46191599965096,352.8626632997766,352.8626632997766,352.8626632997766,353.4482028996572,right,1,0.5782949002459645,None,,,,,,,,,,,,,,,,,,,,,,,,,,,,,,,,,,Prism,1,32,Female,White,,2024-12-05_09h42.30.202,dissANT,2023.2.3,59.79845536642999,2024-12-05 09h48.45.939179 -0600,
centre.png,congRight.png,left,180,,,,,1,0,1,0,0,42,42,14,353.4624774996191,,,,,,,,,,353.44962379988283,353.4624774996191,353.86262879986316,353.84749399963766,0.4,353.8475583996624,353.86262879986316,353.86262879986316,353.9625161001459,354.3624425996095,354.3624425996095,354.3624425996095,354.89693790022284,left,1,0.5253363000229001,None,,,,,,,,,,,,,,,,,,,,,,,,,,,,,,,,,,Prism,1,32,Female,White,,2024-12-05_09h42.30.202,dissANT,2023.2.3,59.79845536642999,2024-12-05 09h48.45.939179 -0600,
both.png,neutralRight.png,right,0,,,,,1,0,1,0,0,43,43,41,354.91276650037616,,,,,,,,,,354.89808680024,354.91276650037616,355.4623395996168,355.44738609995693,0.55,355.44745059963316,355.4623395996168,355.4623395996168,355.5618744995445,355.962425599806,355.962425599806,355.962425599806,356.41516419965774,right,1,0.43667859956622124,None,,,,,,,,,,,,,,,,,,,,,,,,,,,,,,,,,,Prism,1,32,Female,White,,2024-12-05_09h42.30.202,dissANT,2023.2.3,59.79845536642999,2024-12-05 09h48.45.939179 -0600,
both.png,incongRight.png,left,180,,,,,1,0,1,0,0,44,44,29,356.4286259999499,,,,,,,,,,356.4165796004236,356.4286259999499,356.8290100004524,356.8134415000677,0.4,356.8135061999783,356.8290100004524,356.8290100004524,356.92909109964967,357.32912180013955,357.32912180013955,357.32912180013955,358.28258910030127,left,1,0.9445913005620241,None,,,,,,,,,,,,,,,,,,,,,,,,,,,,,,,,,,Prism,1,32,Female,White,,2024-12-05_09h42.30.202,dissANT,2023.2.3,59.79845536642999,2024-12-05 09h48.45.939179 -0600,
lower.png,incongRight.png,left,180,,,,,1,0,1,0,0,45,45,28,358.29573940020055,,,,,,,,,,358.2840088997036,358.29573940020055,358.79552500043064,358.7806262001395,0.5,358.7806991003454,358.79552500043064,358.79552500043064,358.8951612999663,359.2957785995677,359.2957785995677,359.2957785995677,360.33200670033693,left,1,1.0222507994621992,None,,,,,,,,,,,,,,,,,,,,,,,,,,,,,,,,,,Prism,1,32,Female,White,,2024-12-05_09h42.30.202,dissANT,2023.2.3,59.79845536642999,2024-12-05 09h48.45.939179 -0600,
lower.png,congRight.png,left,180,,,,,1,0,1,0,0,46,46,12,360.3450841996819,,,,,,,,,,360.33373439963907,360.3450841996819,360.89551979955286,360.8817188004032,0.55,360.88181469962,360.89551979955286,360.89551979955286,360.9957545995712,361.39583059959114,361.39583059959114,361.39583059959114,361.9315357003361,left,1,0.531754800118506,None,,,,,,,,,,,,,,,,,,,,,,,,,,,,,,,,,,Prism,1,32,Female,White,,2024-12-05_09h42.30.202,dissANT,2023.2.3,59.79845536642999,2024-12-05 09h48.45.939179 -0600,
blank.png,incongLeft.png,right,180,,,,,1,0,1,0,0,47,47,23,361.94519659969956,,,,,,,,,,361.93301310017705,361.94519659969956,362.3455130998045,362.3303212998435,0.4,362.3303822996095,362.3455130998045,362.3455130998045,362.4457203000784,362.84578189998865,362.84578189998865,362.84578189998865,363.9631201000884,right,1,1.103651199489832,None,,,,,,,,,,,,,,,,,,,,,,,,,,,,,,,,,,Prism,1,32,Female,White,,2024-12-05_09h42.30.202,dissANT,2023.2.3,59.79845536642999,2024-12-05 09h48.45.939179 -0600,
upper.png,incongLeft.png,left,0,,,,,1,0,1,0,1,0,48,16,363.97874270007014,,,,,,,,,,363.9642457002774,363.97874270007014,364.378744199872,364.3641993999481,0.4,364.3642656998709,364.378744199872,364.378744199872,364.4789843996987,364.87905390001833,364.87905390001833,364.87905390001833,365.4979277998209,left,1,0.6141369994729757,None,,,,,,,,,,,,,,,,,,,,,,,,,,,,,,,,,,Prism,1,32,Female,White,,2024-12-05_09h42.30.202,dissANT,2023.2.3,59.79845536642999,2024-12-05 09h48.45.939179 -0600,
blank.png,incongLeft.png,left,0,,,,,1,0,1,0,1,1,49,19,365.5120473001152,,,,,,,,,,365.49959480017424,365.5120473001152,366.0121787004173,365.997237900272,0.5,365.9973042001948,366.0121787004173,366.0121787004173,366.1124175004661,366.51239139959216,366.51239139959216,366.51239139959216,367.23214200045913,left,1,0.7156410003080964,None,,,,,,,,,,,,,,,,,,,,,,,,,,,,,,,,,,Prism,1,32,Female,White,,2024-12-05_09h42.30.202,dissANT,2023.2.3,59.79845536642999,2024-12-05 09h48.45.939179 -0600,
both.png,neutralLeft.png,right,180,,,,,1,0,1,0,1,2,50,37,367.2450804999098,,,,,,,,,,367.23386660031974,367.2450804999098,367.64493000041693,367.6296234000474,0.4,367.6296654995531,367.64493000041693,367.64493000041693,367.74486120045185,368.1449047001079,368.1449047001079,368.1449047001079,368.7973555997014,right,1,0.6434642001986504,None,,,,,,,,,,,,,,,,,,,,,,,,,,,,,,,,,,Prism,1,32,Female,White,,2024-12-05_09h42.30.202,dissANT,2023.2.3,59.79845536642999,2024-12-05 09h48.45.939179 -0600,
centre.png,neutralLeft.png,left,0,,,,,1,0,1,0,1,3,51,34,368.81172760017216,,,,,,,,,,368.7991118999198,368.81172760017216,369.3619504002854,369.3471611998975,0.55,369.34722180012614,369.3619504002854,369.3619504002854,369.46213459968567,369.86235459987074,369.86235459987074,369.86235459987074,370.31540449988097,left,1,0.4484743997454643,None,,,,,,,,,,,,,,,,,,,,,,,,,,,,,,,,,,Prism,1,32,Female,White,,2024-12-05_09h42.30.202,dissANT,2023.2.3,59.79845536642999,2024-12-05 09h48.45.939179 -0600,
centre.png,congLeft.png,left,0,,,,,1,0,1,0,1,4,52,2,370.32873580046,,,,,,,,,,370.3173845000565,370.32873580046,370.7284692004323,370.71375789958984,0.4,370.71381899993867,370.7284692004323,370.7284692004323,370.8284254996106,371.2290230002254,371.2290230002254,371.2290230002254,371.69797830004245,left,1,0.45428149960935116,None,,,,,,,,,,,,,,,,,,,,,,,,,,,,,,,,,,Prism,1,32,Female,White,,2024-12-05_09h42.30.202,dissANT,2023.2.3,59.79845536642999,2024-12-05 09h48.45.939179 -0600,
blank.png,incongLeft.png,right,180,,,,,1,0,1,0,1,5,53,23,371.71221309993416,,,,,,,,,,371.69887049961835,371.71221309993416,372.1117572002113,372.09589979983866,0.4,372.0959342997521,372.1117572002113,372.1117572002113,372.2120255995542,372.59545009955764,372.59545009955764,372.61152630019933,373.6315948003903,right,1,1.0322198001667857,None,,,,,,,,,,,,,,,,,,,,,,,,,,,,,,,,,,Prism,1,32,Female,White,,2024-12-05_09h42.30.202,dissANT,2023.2.3,59.79845536642999,2024-12-05 09h48.45.939179 -0600,
centre.png,congRight.png,left,180,,,,,1,0,1,0,1,6,54,14,373.64508009981364,,,,,,,,,,373.6329738004133,373.64508009981364,374.19475989975035,374.1783570004627,0.55,374.1783712999895,374.19475989975035,374.19475989975035,374.29535910021514,374.67877379991114,374.67877379991114,374.69529439974576,375.3650334998965,left,1,0.6732441997155547,None,,,,,,,,,,,,,,,,,,,,,,,,,,,,,,,,,,Prism,1,32,Female,White,,2024-12-05_09h42.30.202,dissANT,2023.2.3,59.79845536642999,2024-12-05 09h48.45.939179 -0600,
centre.png,incongRight.png,left,180,,,,,1,0,1,0,1,7,55,30,375.3788932999596,,,,,,,,,,375.36673429980874,375.3788932999596,375.8784127999097,375.8635077001527,0.5,375.86356810014695,375.8784127999097,375.8784127999097,375.97871229983866,376.3786727003753,376.3786727003753,376.3786727003753,377.34803839959204,left,1,0.9638350997120142,None,,,,,,,,,,,,,,,,,,,,,,,,,,,,,,,,,,Prism,1,32,Female,White,,2024-12-05_09h42.30.202,dissANT,2023.2.3,59.79845536642999,2024-12-05 09h48.45.939179 -0600,
blank.png,congRight.png,left,180,,,,,1,0,1,0,1,8,56,15,377.36188040021807,,,,,,,,,,377.34961509983987,377.36188040021807,377.8117198003456,377.7970893997699,0.45,377.79715340025723,377.8117198003456,377.8117198003456,377.911948800087,378.3119023004547,378.3119023004547,378.3119023004547,378.94804980047047,left,1,0.6200382001698017,None,,,,,,,,,,,,,,,,,,,,,,,,,,,,,,,,,,Prism,1,32,Female,White,,2024-12-05_09h42.30.202,dissANT,2023.2.3,59.79845536642999,2024-12-05 09h48.45.939179 -0600,
both.png,neutralRight.png,left,180,,,,,1,0,1,0,1,9,57,45,378.96187129989266,,,,,,,,,,378.94957699999213,378.96187129989266,379.5112586999312,379.49478439986706,0.55,379.4947974001989,379.5112586999312,379.5112586999312,379.6111123999581,379.99462100025266,379.99462100025266,380.0111386002973,380.67820089962333,left,1,0.6671169996261597,None,,,,,,,,,,,,,,,,,,,,,,,,,,,,,,,,,,Prism,1,32,Female,White,,2024-12-05_09h42.30.202,dissANT,2023.2.3,59.79845536642999,2024-12-05 09h48.45.939179 -0600,
blank.png,congRight.png,right,0,,,,,1,0,1,0,1,10,58,11,380.694483499974,,,,,,,,,,380.67848309967667,380.694483499974,381.14460499957204,381.1280399002135,0.45,381.1280508004129,381.14460499957204,381.14460499957204,381.24435720033944,381.62779370043427,381.62779370043427,381.6443750998005,382.17840440012515,right,1,0.549957700073719,None,,,,,,,,,,,,,,,,,,,,,,,,,,,,,,,,,,Prism,1,32,Female,White,,2024-12-05_09h42.30.202,dissANT,2023.2.3,59.79845536642999,2024-12-05 09h48.45.939179 -0600,
upper.png,incongRight.png,right,0,,,,,1,0,1,0,1,11,59,24,382.1943995002657,,,,,,,,,,382.1788617996499,382.1943995002657,382.5946215996519,382.57814479991794,0.4,382.57815449964255,382.5946215996519,382.5946215996519,382.69456920027733,383.07876379974186,383.07876379974186,383.0947123002261,383.8159947004169,right,1,0.7235997002571821,None,,,,,,,,,,,,,,,,,,,,,,,,,,,,,,,,,,Prism,1,32,Female,White,,2024-12-05_09h42.30.202,dissANT,2023.2.3,59.79845536642999,2024-12-05 09h48.45.939179 -0600,
lower.png,neutralLeft.png,right,180,,,,,1,0,1,0,1,12,60,36,383.8284409996122,,,,,,,,,,383.81747169978917,383.8284409996122,384.2283142004162,384.2145544998348,0.4,384.21463800035417,384.2283142004162,384.2283142004162,384.32856480032206,384.72856010030955,384.72856010030955,384.72856010030955,385.1964453998953,right,1,0.45609250012785196,None,,,,,,,,,,,,,,,,,,,,,,,,,,,,,,,,,,Prism,1,32,Female,White,,2024-12-05_09h42.30.202,dissANT,2023.2.3,59.79845536642999,2024-12-05 09h48.45.939179 -0600,
blank.png,neutralRight.png,left,180,,,,,1,0,1,0,1,13,61,47,385.2116446001455,,,,,,,,,,385.19767239969224,385.2116446001455,385.6115603996441,385.59769409988075,0.4,385.59777479991317,385.6115603996441,385.6115603996441,385.7116646002978,386.1117936000228,386.1117936000228,386.1117936000228,386.7644744999707,left,1,0.6353316996246576,None,,,,,,,,,,,,,,,,,,,,,,,,,,,,,,,,,,Prism,1,32,Female,White,,2024-12-05_09h42.30.202,dissANT,2023.2.3,59.79845536642999,2024-12-05 09h48.45.939179 -0600,
blank.png,congLeft.png,left,0,,,,,1,0,1,0,1,14,62,3,386.7782696997747,,,,,,,,,,386.7661428004503,386.7782696997747,387.22841889970005,387.21254029963166,0.45,387.21259440016,387.22841889970005,387.22841889970005,387.32848330028355,387.71166309993714,387.71166309993714,387.7285109004006,388.4971059001982,left,1,0.7732609994709492,None,,,,,,,,,,,,,,,,,,,,,,,,,,,,,,,,,,Prism,1,32,Female,White,,2024-12-05_09h42.30.202,dissANT,2023.2.3,59.79845536642999,2024-12-05 09h48.45.939179 -0600,
both.png,incongRight.png,right,0,,,,,1,0,1,0,1,15,63,25,388.5113559002057,,,,,,,,,,388.49860860034823,388.5113559002057,389.0613296004012,389.0472085000947,0.55,389.0472812997177,389.0613296004012,389.0613296004012,389.1617459002882,389.5617356002331,389.5617356002331,389.5617356002331,390.19769369997084,right,1,0.6329310005530715,None,,,,,,,,,,,,,,,,,,,,,,,,,,,,,,,,,,Prism,1,32,Female,White,,2024-12-05_09h42.30.202,dissANT,2023.2.3,59.79845536642999,2024-12-05 09h48.45.939179 -0600,
lower.png,incongRight.png,left,180,,,,,1,0,1,0,1,16,64,28,390.21105640009046,,,,,,,,,,390.199153999798,390.21105640009046,390.66123879980296,390.6470678001642,0.45,390.64712429977953,390.66123879980296,390.66123879980296,390.7613492999226,391.16165750008076,391.16165750008076,391.16165750008076,391.7486110003665,left,1,0.5834896005690098,None,,,,,,,,,,,,,,,,,,,,,,,,,,,,,,,,,,Prism,1,32,Female,White,,2024-12-05_09h42.30.202,dissANT,2023.2.3,59.79845536642999,2024-12-05 09h48.45.939179 -0600,
lower.png,incongLeft.png,right,180,,,,,1,0,1,0,1,17,65,20,391.7616109000519,,,,,,,,,,391.7507333997637,391.7616109000519,392.21182319987565,392.19578579999506,0.45,392.19582749996334,392.21182319987565,392.21182319987565,392.311601200141,392.69479619991034,392.69479619991034,392.7112137004733,393.4471126003191,right,1,0.747486799955368,None,,,,,,,,,,,,,,,,,,,,,,,,,,,,,,,,,,Prism,1,32,Female,White,,2024-12-05_09h42.30.202,dissANT,2023.2.3,59.79845536642999,2024-12-05 09h48.45.939179 -0600,
blank.png,neutralLeft.png,left,0,,,,,1,0,1,0,1,18,66,35,393.46151730045676,,,,,,,,,,393.4484243998304,393.46151730045676,393.96154229994863,393.94802809972316,0.5,393.9481030004099,393.96154229994863,393.96154229994863,394.06162520032376,394.46159460023046,394.46159460023046,394.46159460023046,395.29584719985723,left,1,0.8283548001199961,None,,,,,,,,,,,,,,,,,,,,,,,,,,,,,,,,,,Prism,1,32,Female,White,,2024-12-05_09h42.30.202,dissANT,2023.2.3,59.79845536642999,2024-12-05 09h48.45.939179 -0600,
blank.png,incongRight.png,left,180,,,,,1,0,1,0,1,19,67,31,395.3110713995993,,,,,,,,,,395.2967881998047,395.3110713995993,395.8114750003442,395.7961595002562,0.5,395.7962079998106,395.8114750003442,395.8114750003442,395.9115313999355,396.3111084997654,396.3111084997654,396.3111084997654,397.18172840029,left,1,0.8565604006871581,None,,,,,,,,,,,,,,,,,,,,,,,,,,,,,,,,,,Prism,1,32,Female,White,,2024-12-05_09h42.30.202,dissANT,2023.2.3,59.79845536642999,2024-12-05 09h48.45.939179 -0600,
both.png,neutralLeft.png,left,0,,,,,1,0,1,0,1,20,68,33,397.19457809999585,,,,,,,,,,397.183646899648,397.19457809999585,397.69455180037767,397.6799303004518,0.5,397.67999180033803,397.69455180037767,397.69455180037767,397.7941487999633,398.1946547003463,398.1946547003463,398.1946547003463,398.7482187002897,left,1,0.5498604001477361,None,,,,,,,,,,,,,,,,,,,,,,,,,,,,,,,,,,Prism,1,32,Female,White,,2024-12-05_09h42.30.202,dissANT,2023.2.3,59.79845536642999,2024-12-05 09h48.45.939179 -0600,
both.png,incongRight.png,left,180,,,,,1,0,1,0,1,21,69,29,398.7610109001398,,,,,,,,,,398.7495728004724,398.7610109001398,399.3111762003973,399.29628309980035,0.55,399.2963393004611,399.3111762003973,399.3111762003973,399.4111315002665,399.81156119983643,399.81156119983643,399.81156119983643,400.6471324004233,left,1,0.8230831995606422,None,,,,,,,,,,,,,,,,,,,,,,,,,,,,,,,,,,Prism,1,32,Female,White,,2024-12-05_09h42.30.202,dissANT,2023.2.3,59.79845536642999,2024-12-05 09h48.45.939179 -0600,
blank.png,neutralLeft.png,right,180,,,,,1,0,1,0,1,22,70,39,400.66139749996364,,,,,,,,,,400.6486507002264,400.66139749996364,401.2114108996466,401.1958277001977,0.55,401.1958769997582,401.2114108996466,401.2114108996466,401.31143970042467,401.71154650021344,401.71154650021344,401.71154650021344,402.3483306001872,right,1,0.629679000005126,None,,,,,,,,,,,,,,,,,,,,,,,,,,,,,,,,,,Prism,1,32,Female,White,,2024-12-05_09h42.30.202,dissANT,2023.2.3,59.79845536642999,2024-12-05 09h48.45.939179 -0600,
both.png,congRight.png,left,180,,,,,1,0,1,0,1,23,71,13,402.3614961002022,,,,,,,,,,402.3502115001902,402.3614961002022,402.91133239958435,402.8962751002982,0.55,402.89633580017835,402.91133239958435,402.91133239958435,403.01124559994787,403.4112501004711,403.4112501004711,403.4112501004711,404.0139440000057,left,1,0.5956530999392271,None,,,,,,,,,,,,,,,,,,,,,,,,,,,,,,,,,,Prism,1,32,Female,White,,2024-12-05_09h42.30.202,dissANT,2023.2.3,59.79845536642999,2024-12-05 09h48.45.939179 -0600,
upper.png,neutralLeft.png,left,0,,,,,1,0,1,0,1,24,72,32,404.02787679992616,,,,,,,,,,404.01525830011815,404.02787679992616,404.47757270000875,404.46324439998716,0.45,404.4633160000667,404.47757270000875,404.47757270000875,404.5779654998332,404.97810379974544,404.97810379974544,404.97810379974544,405.5641388995573,left,1,0.5734457997605205,None,,,,,,,,,,,,,,,,,,,,,,,,,,,,,,,,,,Prism,1,32,Female,White,,2024-12-05_09h42.30.202,dissANT,2023.2.3,59.79845536642999,2024-12-05 09h48.45.939179 -0600,
both.png,congLeft.png,right,180,,,,,1,0,1,0,1,25,73,5,405.5780472997576,,,,,,,,,,405.5658496003598,405.5780472997576,406.0276300003752,406.01347810029984,0.45,406.013553599827,406.0276300003752,406.0276300003752,406.127943799831,406.5281100003049,406.5281100003049,406.5281100003049,407.0813560001552,right,1,0.5377016002312303,None,,,,,,,,,,,,,,,,,,,,,,,,,,,,,,,,,,Prism,1,32,Female,White,,2024-12-05_09h42.30.202,dissANT,2023.2.3,59.79845536642999,2024-12-05 09h48.45.939179 -0600,
both.png,congRight.png,right,0,,,,,1,0,1,0,1,26,74,9,407.09449779987335,,,,,,,,,,407.08332009986043,407.09449779987335,407.5444254996255,407.5303886998445,0.45,407.530463100411,407.5444254996255,407.5444254996255,407.644380800426,408.04456220008433,408.04456220008433,408.04456220008433,408.61395379994065,right,1,0.560262999497354,None,,,,,,,,,,,,,,,,,,,,,,,,,,,,,,,,,,Prism,1,32,Female,White,,2024-12-05_09h42.30.202,dissANT,2023.2.3,59.79845536642999,2024-12-05 09h48.45.939179 -0600,
lower.png,congRight.png,left,180,,,,,1,0,1,0,1,27,75,12,408.62738080043346,,,,,,,,,,408.6155652003363,408.62738080043346,409.177802500315,409.16324040014297,0.55,409.16331300046295,409.177802500315,409.177802500315,409.2777950996533,409.67779649980366,409.67779649980366,409.67779649980366,410.2637424003333,left,1,0.5685271006077528,None,,,,,,,,,,,,,,,,,,,,,,,,,,,,,,,,,,Prism,1,32,Female,White,,2024-12-05_09h42.30.202,dissANT,2023.2.3,59.79845536642999,2024-12-05 09h48.45.939179 -0600,
