cue,tar,corrAns,targOrientation,pracLoop.thisRepN,pracLoop.thisTrialN,pracLoop.thisN,pracLoop.thisIndex,blockLoop.thisRepN,blockLoop.thisTrialN,blockLoop.thisN,blockLoop.thisIndex,mainLoop.thisRepN,mainLoop.thisTrialN,mainLoop.thisN,mainLoop.thisIndex,thisRow.t,notes,PracInstruc.started,pracText1.started,pracResp1.started,PracInstruc.stopped,PracInstruct2.started,practInst2.started,practResp2.started,PracInstruct2.stopped,fixation.started,image.started,image.stopped,fixation.stopped,fixFuration,trial.started,cues.started,fixationshort.started,cues.stopped,target.started,resp.started,fixationshort.stopped,trial.stopped,resp.keys,resp.corr,resp.rt,resp.duration,feedback.started,text.started,feedback.stopped,text.stopped,MainInstruc.started,mainInst.started,instResp.started,MainInstruc.stopped,instResp.keys,instResp.rt,instResp.duration,Rest.started,rest.started,restResp.started,Rest.stopped,MentalFatigue.started,FatigueQ.started,textbox.started,FatigueEnd.started,EndClick.started,MentalFatigue.stopped,textbox.text,EndClick.x,EndClick.y,EndClick.leftButton,EndClick.midButton,EndClick.rightButton,EndClick.time,EndClick.clicked_name,End.started,endText.started,endKey.started,End.stopped,participant,week,age,gender,race/ethnicity,cognitive health history,date,expName,psychopyVersion,frameRate,expStart,
both.png,congLeft.png,left,0,0,0,0,1,,,,,,,,,87.90617069974542,,0.0015035001561045647,0.0038492996245622635,0.0038492996245622635,23.272847999818623,23.272898600436747,23.308854199945927,23.308854199945927,87.85512010008097,87.88327580038458,87.90617069974542,88.37187150027603,88.3529957998544,0.45,88.35308040026575,88.37187150027603,88.37187150027603,88.48412569984794,88.867520599626,88.867520599626,88.88401729986072,90.03712570015341,left,1,1.1635047001764178,None,90.04142070002854,90.06700390018523,91.05100420024246,,,,,,,,,,,,,,,,,,,,,,,,,,,,,,,Quartz,1,22,Female,White,N/A,2024-12-06_10h58.59.245,dissANT,2023.2.3,60.39945780196241,2024-12-06 11h00.18.877861 -0600,
blank.png,incongLeft.png,left,0,0,1,1,19,,,,,,,,,91.06733809970319,,,,,,,,,,91.0522274998948,91.06733809970319,91.46709920000285,91.45178959984332,0.4,91.45185669977218,91.46709920000285,91.46709920000285,91.56694689951837,91.96732489950955,91.96732489950955,91.96732489950955,93.15314009971917,left,1,1.1753422003239393,None,93.15424389950931,93.16787560004741,94.15199510008097,94.16737219970673,,,,,,,,,,,,,,,,,,,,,,,,,,,,,,Quartz,1,22,Female,White,N/A,2024-12-06_10h58.59.245,dissANT,2023.2.3,60.39945780196241,2024-12-06 11h00.18.877861 -0600,
centre.png,congLeft.png,right,180,0,2,2,6,,,,,,,,,94.16737219970673,,,,,,,,,,94.1529179001227,94.16737219970673,94.61722780019045,94.60182970017195,0.45,94.60188699979335,94.61722780019045,94.61722780019045,94.71740929968655,95.11724350042641,95.11724350042641,95.11724350042641,95.73671809956431,right,1,0.613527100533247,None,95.73777430038899,95.75017150025815,96.7344556003809,96.7501007001847,,,,,,,,,,,,,,,,,,,,,,,,,,,,,,Quartz,1,22,Female,White,N/A,2024-12-06_10h58.59.245,dissANT,2023.2.3,60.39945780196241,2024-12-06 11h00.18.877861 -0600,
blank.png,congRight.png,right,0,0,3,3,11,,,,,,,,,96.7501007001847,,,,,,,,,,96.73506520036608,96.7501007001847,97.20030349958688,97.18586799968034,0.45,97.1859488999471,97.20030349958688,97.20030349958688,97.30009569972754,97.70082900021225,97.70082900021225,97.70082900021225,98.21988559979945,right,1,0.5075885001569986,None,98.22093930002302,98.23362349998206,99.21850879956037,99.23392570018768,,,,,,,,,,,,,,,,,,,,,,,,,,,,,,Quartz,1,22,Female,White,N/A,2024-12-06_10h58.59.245,dissANT,2023.2.3,60.39945780196241,2024-12-06 11h00.18.877861 -0600,
lower.png,incongLeft.png,right,180,0,4,4,20,,,,,,,,,99.23392570018768,,,,,,,,,,99.21930790040642,99.23392570018768,99.68376069981605,99.66852939967066,0.45,99.66857660003006,99.68376069981605,99.68376069981605,99.78369519952685,100.18372549954802,100.18372549954802,100.18372549954802,100.78625120036304,left,0,0.5852886000648141,None,100.78735360037535,100.80020949989557,101.78518639970571,101.80038249958307,,,,,,,,,,,,,,,,,,,,,,,,,,,,,,Quartz,1,22,Female,White,N/A,2024-12-06_10h58.59.245,dissANT,2023.2.3,60.39945780196241,2024-12-06 11h00.18.877861 -0600,
centre.png,congRight.png,left,180,0,5,5,14,,,,,,,,,101.80038249958307,,,,,,,,,,101.78609950002283,101.80038249958307,102.25029649958014,102.2352842995897,0.45,102.2353499000892,102.25029649958014,102.25029649958014,102.35031840018928,102.75050530023873,102.75050530023873,102.75050530023873,103.35180469974875,left,1,0.5897323004901409,None,103.35256010014564,103.36670720018446,104.35242119990289,104.36689149960876,,,,,,,,,,,,,,,,,,,,,,,,,,,,,,Quartz,1,22,Female,White,N/A,2024-12-06_10h58.59.245,dissANT,2023.2.3,60.39945780196241,2024-12-06 11h00.18.877861 -0600,
upper.png,congLeft.png,left,0,0,6,6,0,,,,,,,,,104.36689149960876,,,,,,,,,,104.35347430035472,104.36689149960876,104.81691069994122,104.80249349959195,0.45,104.80256989970803,104.81691069994122,104.81691069994122,104.91700810007751,105.31687960028648,105.31687960028648,105.31687960028648,105.95284369960427,left,1,0.6297063995152712,None,105.95379980001599,105.96807570010424,106.96642599999905,,,,,,,,,,,,,,,,,,,,,,,,,,,,,,,Quartz,1,22,Female,White,N/A,2024-12-06_10h58.59.245,dissANT,2023.2.3,60.39945780196241,2024-12-06 11h00.18.877861 -0600,
lower.png,congRight.png,left,180,0,7,7,12,,,,,,,,,106.98295329976827,,,,,,,,,,106.9666334996,106.98295329976827,107.48349469993263,107.46876060031354,0.5,107.46882830001414,107.48349469993263,107.48349469993263,107.58351339958608,107.98364359978586,107.98364359978586,107.98364359978586,108.56936409976333,left,1,0.5771639002487063,None,108.57037349976599,108.58333799988031,109.5669448999688,109.58310540020466,,,,,,,,,,,,,,,,,,,,,,,,,,,,,,Quartz,1,22,Female,White,N/A,2024-12-06_10h58.59.245,dissANT,2023.2.3,60.39945780196241,2024-12-06 11h00.18.877861 -0600,
upper.png,incongLeft.png,left,0,0,8,8,16,,,,,,,,,109.58310540020466,,,,,,,,,,109.5674091996625,109.58310540020466,110.13348030019552,110.11883669998497,0.55,110.11890370026231,110.13348030019552,110.13348030019552,110.23347499966621,110.63350419979542,110.63350419979542,110.63350419979542,111.36832609958947,left,1,0.7266308004036546,None,111.36902270000428,111.38303290028125,112.36658400017768,112.38285989966244,,,,,,,,,,,,,,,,,,,,,,,,,,,,,,Quartz,1,22,Female,White,N/A,2024-12-06_10h58.59.245,dissANT,2023.2.3,60.39945780196241,2024-12-06 11h00.18.877861 -0600,
blank.png,congLeft.png,right,180,0,9,9,7,,,,,,,,,112.38285989966244,,,,,,,,,,112.36684220004827,112.38285989966244,112.93344349972904,112.91891449969262,0.55,112.91898909956217,112.93344349972904,112.93344349972904,113.03360120020807,113.43345140013844,113.43345140013844,113.43345140013844,114.03615029994398,right,1,0.5876913005486131,None,114.03739990014583,114.04975389968604,115.03490609955043,115.04989979974926,,,,,,,,,,,,,,,,,,,,,,,,,,,,,,Quartz,1,22,Female,White,N/A,2024-12-06_10h58.59.245,dissANT,2023.2.3,60.39945780196241,2024-12-06 11h00.18.877861 -0600,
centre.png,congLeft.png,left,0,0,10,10,2,,,,,,,,,115.04989979974926,,,,,,,,,,115.0358039997518,115.04989979974926,115.45008059963584,115.43564879987389,0.4,115.43572190031409,115.45008059963584,115.45008059963584,115.54948650021106,115.95020820014179,115.95020820014179,115.95020820014179,116.4521743003279,left,1,0.4864255003631115,None,116.45310430042446,116.46622209995985,117.45165759976953,117.46637399960309,,,,,,,,,,,,,,,,,,,,,,,,,,,,,,Quartz,1,22,Female,White,N/A,2024-12-06_10h58.59.245,dissANT,2023.2.3,60.39945780196241,2024-12-06 11h00.18.877861 -0600,
both.png,congLeft.png,right,180,0,11,11,5,,,,,,,,,117.46637399960309,,,,,,,,,,117.45256270002574,117.46637399960309,117.91660459991544,117.90181529987603,0.45,117.90187619999051,117.91660459991544,117.91660459991544,118.01656819973141,118.41612190008163,118.41612190008163,118.41612190008163,118.88567150011659,right,1,0.45310339983552694,None,118.88669850025326,118.89943649992347,119.8844288000837,119.89988439995795,,,,,,,,,,,,,,,,,,,,,,,,,,,,,,Quartz,1,22,Female,White,N/A,2024-12-06_10h58.59.245,dissANT,2023.2.3,60.39945780196241,2024-12-06 11h00.18.877861 -0600,
both.png,incongLeft.png,left,0,0,12,12,17,,,,,,,,,119.89988439995795,,,,,,,,,,119.88514150027186,119.89988439995795,120.44976969994605,120.4343571998179,0.55,120.43440669961274,120.44976969994605,120.44976969994605,120.55007690005004,120.94987419992685,120.94987419992685,120.94987419992685,121.55246310029179,left,1,0.5993569996207952,None,121.55334500037134,121.5663778996095,122.5504243997857,122.56644979957491,,,,,,,,,,,,,,,,,,,,,,,,,,,,,,Quartz,1,22,Female,White,N/A,2024-12-06_10h58.59.245,dissANT,2023.2.3,60.39945780196241,2024-12-06 11h00.18.877861 -0600,
both.png,incongLeft.png,right,180,0,13,13,21,,,,,,,,,122.56644979957491,,,,,,,,,,122.55095139984041,122.56644979957491,123.11640600021929,123.10143870022148,0.55,123.10150390025228,123.11640600021929,123.11640600021929,123.2165344003588,123.61685040034354,123.61685040034354,123.61685040034354,124.21682189963758,right,1,0.5945640001446009,None,124.21707910019904,124.23266059998423,125.21843510027975,125.23314960021526,,,,,,,,,,,,,,,,,,,,,,,,,,,,,,Quartz,1,22,Female,White,N/A,2024-12-06_10h58.59.245,dissANT,2023.2.3,60.39945780196241,2024-12-06 11h00.18.877861 -0600,
centre.png,incongLeft.png,left,0,0,14,14,18,,,,,,,,,125.23314960021526,,,,,,,,,,125.21958789974451,125.23314960021526,125.63306390028447,125.61862820014358,0.4,125.61871260032058,125.63306390028447,125.63306390028447,125.73249979969114,126.13299690000713,126.13299690000713,126.13299690000713,126.75294789951295,left,1,0.6041548997163773,None,126.75429250020534,126.76592409983277,127.75169460009784,127.76646890025586,,,,,,,,,,,,,,,,,,,,,,,,,,,,,,Quartz,1,22,Female,White,N/A,2024-12-06_10h58.59.245,dissANT,2023.2.3,60.39945780196241,2024-12-06 11h00.18.877861 -0600,
blank.png,congLeft.png,left,0,0,15,15,3,,,,,,,,,127.76646890025586,,,,,,,,,,127.75281039997935,127.76646890025586,128.31630669999868,128.30218189954758,0.55,128.30225579999387,128.31630669999868,128.31630669999868,128.41667430009693,128.81664249952883,128.81664249952883,128.81664249952883,129.28488350007683,left,1,0.4524346003308892,None,129.28590280003846,129.29927499964833,130.28460779972374,130.29966740030795,,,,,,,,,,,,,,,,,,,,,,,,,,,,,,Quartz,1,22,Female,White,N/A,2024-12-06_10h58.59.245,dissANT,2023.2.3,60.39945780196241,2024-12-06 11h00.18.877861 -0600,
blank.png,incongLeft.png,right,180,0,16,16,23,,,,,,,,,130.29966740030795,,,,,,,,,,130.28549579996616,130.29966740030795,130.84960009995848,130.83465739991516,0.55,130.83471889980137,130.84960009995848,130.84960009995848,130.949377999641,131.3500694995746,131.3500694995746,131.3500694995746,132.00230269972235,right,1,0.6481863996013999,None,132.00300959963351,132.01613289956003,133.00239919964224,133.01626610010862,,,,,,,,,,,,,,,,,,,,,,,,,,,,,,Quartz,1,22,Female,White,N/A,2024-12-06_10h58.59.245,dissANT,2023.2.3,60.39945780196241,2024-12-06 11h00.18.877861 -0600,
centre.png,congRight.png,right,0,0,17,17,10,,,,,,,,,133.01626610010862,,,,,,,,,,133.0035063996911,133.01626610010862,133.46587289962918,133.45056870020926,0.45,133.45062329992652,133.46587289962918,133.46587289962918,133.56639590021223,133.96606949996203,133.96606949996203,133.96606949996203,134.46883470006287,right,1,0.49256089981645346,None,134.4698919998482,134.4826825996861,135.46826789993793,135.4828017996624,,,,,,,,,,,,,,,,,,,,,,,,,,,,,,Quartz,1,22,Female,White,N/A,2024-12-06_10h58.59.245,dissANT,2023.2.3,60.39945780196241,2024-12-06 11h00.18.877861 -0600,
upper.png,congRight.png,right,0,0,18,18,8,,,,,,,,,135.4828017996624,,,,,,,,,,135.469333300367,135.4828017996624,135.88250689953566,135.867820199579,0.4,135.86787839978933,135.88250689953566,135.88250689953566,135.98255150020123,136.38298409990966,136.38298409990966,136.38298409990966,136.81871880032122,right,1,0.42806039936840534,None,136.819668199867,136.8323024995625,137.81807509995997,137.83280239999294,,,,,,,,,,,,,,,,,,,,,,,,,,,,,,Quartz,1,22,Female,White,N/A,2024-12-06_10h58.59.245,dissANT,2023.2.3,60.39945780196241,2024-12-06 11h00.18.877861 -0600,
both.png,congRight.png,left,180,0,19,19,13,,,,,,,,,137.83280239999294,,,,,,,,,,137.81905420031399,137.83280239999294,138.38269769959152,138.36868960037827,0.55,138.36875849962234,138.38269769959152,138.38269769959152,138.48306280001998,138.88237269967794,138.88237269967794,138.88237269967794,139.36923279985785,left,1,0.4818043000996113,None,139.3702341997996,139.38261710014194,140.36766320001334,140.38297829963267,,,,,,,,,,,,,,,,,,,,,,,,,,,,,,Quartz,1,22,Female,White,N/A,2024-12-06_10h58.59.245,dissANT,2023.2.3,60.39945780196241,2024-12-06 11h00.18.877861 -0600,
centre.png,incongLeft.png,right,180,0,20,20,22,,,,,,,,,140.38297829963267,,,,,,,,,,140.36867319978774,140.38297829963267,140.93238089978695,140.917764400132,0.55,140.91782069951296,140.93238089978695,140.93238089978695,141.03273729979992,141.4327672002837,141.4327672002837,141.4327672002837,142.01738519966602,right,1,0.576367300003767,None,142.0181066999212,142.0324667999521,143.01782710012048,143.0326736997813,,,,,,,,,,,,,,,,,,,,,,,,,,,,,,Quartz,1,22,Female,White,N/A,2024-12-06_10h58.59.245,dissANT,2023.2.3,60.39945780196241,2024-12-06 11h00.18.877861 -0600,
both.png,congRight.png,right,0,0,21,21,9,,,,,,,,,143.0326736997813,,,,,,,,,,143.01868559978902,143.0326736997813,143.48259180039167,143.46777400001884,0.45,143.46783399954438,143.48259180039167,143.48259180039167,143.58242479991168,143.98262260016054,143.98262260016054,143.98262260016054,144.4353048997,right,1,0.44249350018799305,None,144.43640870042145,144.4490248002112,145.43457849975675,145.4492977997288,,,,,,,,,,,,,,,,,,,,,,,,,,,,,,Quartz,1,22,Female,White,N/A,2024-12-06_10h58.59.245,dissANT,2023.2.3,60.39945780196241,2024-12-06 11h00.18.877861 -0600,
blank.png,congRight.png,left,180,0,22,22,15,,,,,,,,,145.4492977997288,,,,,,,,,,145.43572350032628,145.4492977997288,145.84915690030903,145.83475549984723,0.4,145.83483029995114,145.84915690030903,145.84915690030903,145.94934529997408,146.34952390007675,146.34952390007675,146.34952390007675,146.81947689969093,left,1,0.4657803000882268,None,146.82047189958394,146.83231199998409,147.8164141997695,147.8320094998926,,,,,,,,,,,,,,,,,,,,,,,,,,,,,,Quartz,1,22,Female,White,N/A,2024-12-06_10h58.59.245,dissANT,2023.2.3,60.39945780196241,2024-12-06 11h00.18.877861 -0600,
lower.png,congLeft.png,right,180,0,23,23,4,,,,,,,,,147.8320094998926,,,,,,,,,,147.81708769965917,147.8320094998926,148.38251639995724,148.36744000017643,0.55,148.36749900039285,148.38251639995724,148.38251639995724,148.4824155997485,148.88209149986506,148.88209149986506,148.88209149986506,149.3852340001613,right,1,0.49659769982099533,None,149.38639300037175,149.39890240039676,150.384524599649,150.39940499980003,,,,,,,,,,,,,,,,,,,,,,,,,,,,,,Quartz,1,22,Female,White,N/A,2024-12-06_10h58.59.245,dissANT,2023.2.3,60.39945780196241,2024-12-06 11h00.18.877861 -0600,
,,,,,,,,,,,,,,,,,,,,,,,,,,,,,,,,,,,,,,,,,,,,,,,150.38474200014025,150.39940499980003,150.39940499980003,157.53458390012383,space,7.132747599855065,None,,,,,,,,,,,,,,,,,,,,,,,Quartz,1,22,Female,White,N/A,2024-12-06_10h58.59.245,dissANT,2023.2.3,60.39945780196241,2024-12-06 11h00.18.877861 -0600,
centre.png,neutralRight.png,right,0,,,,,0,0,0,0,0,0,0,42,157.5582251995802,,,,,,,,,,157.55332159996033,157.5582251995802,158.01529170013964,158.00066250003874,0.45,158.00071839988232,158.01529170013964,158.01529170013964,158.11593709979206,158.51592869963497,158.51592869963497,158.51592869963497,159.01781729981303,right,1,0.49399949982762337,None,,,,,,,,,,,,,,,,,,,,,,,,,,,,,,,,,,Quartz,1,22,Female,White,N/A,2024-12-06_10h58.59.245,dissANT,2023.2.3,60.39945780196241,2024-12-06 11h00.18.877861 -0600,
upper.png,neutralLeft.png,left,0,,,,,0,0,0,0,0,1,1,32,159.03174129966646,,,,,,,,,,159.0199704002589,159.03174129966646,159.43196259997785,159.4173766998574,0.4,159.41744130011648,159.43196259997785,159.43196259997785,159.5324743995443,159.93226750008762,159.93226750008762,159.93226750008762,160.35120240040123,left,1,0.4092063996940851,None,,,,,,,,,,,,,,,,,,,,,,,,,,,,,,,,,,Quartz,1,22,Female,White,N/A,2024-12-06_10h58.59.245,dissANT,2023.2.3,60.39945780196241,2024-12-06 11h00.18.877861 -0600,
lower.png,incongRight.png,left,180,,,,,0,0,0,0,0,2,2,28,160.36561520025134,,,,,,,,,,160.35260150022805,160.36561520025134,160.86572260037065,160.8508395003155,0.5,160.8509122999385,160.86572260037065,160.86572260037065,160.9657797003165,161.36554620042443,161.36554620042443,161.36554620042443,161.96850399952382,left,1,0.5850311005488038,None,,,,,,,,,,,,,,,,,,,,,,,,,,,,,,,,,,Quartz,1,22,Female,White,N/A,2024-12-06_10h58.59.245,dissANT,2023.2.3,60.39945780196241,2024-12-06 11h00.18.877861 -0600,
both.png,congRight.png,right,0,,,,,0,0,0,0,0,3,3,9,161.98219230026007,,,,,,,,,,161.97026760037988,161.98219230026007,162.38221599999815,162.36725080013275,0.4,162.36731010023504,162.38221599999815,162.38221599999815,162.4822450997308,162.88233639951795,162.88233639951795,162.88233639951795,163.33440749999136,right,1,0.43980469927191734,None,,,,,,,,,,,,,,,,,,,,,,,,,,,,,,,,,,Quartz,1,22,Female,White,N/A,2024-12-06_10h58.59.245,dissANT,2023.2.3,60.39945780196241,2024-12-06 11h00.18.877861 -0600,
blank.png,neutralRight.png,right,0,,,,,0,0,0,0,0,4,4,43,163.3489429000765,,,,,,,,,,163.33599899988621,163.3489429000765,163.79883420001715,163.7838144004345,0.45,163.7838775999844,163.79883420001715,163.79883420001715,163.8989957999438,164.29903849959373,164.29903849959373,164.29903849959373,164.7687606997788,right,1,0.45610629953444004,None,,,,,,,,,,,,,,,,,,,,,,,,,,,,,,,,,,Quartz,1,22,Female,White,N/A,2024-12-06_10h58.59.245,dissANT,2023.2.3,60.39945780196241,2024-12-06 11h00.18.877861 -0600,
lower.png,neutralLeft.png,right,180,,,,,0,0,0,0,0,5,5,36,164.78205549996346,,,,,,,,,,164.7711893999949,164.78205549996346,165.232110099867,165.21691319998354,0.45,165.2169773997739,165.232110099867,165.232110099867,165.33230520039797,165.7319889003411,165.7319889003411,165.7319889003411,166.23349090013653,right,1,0.4984419997781515,None,,,,,,,,,,,,,,,,,,,,,,,,,,,,,,,,,,Quartz,1,22,Female,White,N/A,2024-12-06_10h58.59.245,dissANT,2023.2.3,60.39945780196241,2024-12-06 11h00.18.877861 -0600,
centre.png,incongLeft.png,right,180,,,,,0,0,0,0,0,6,6,22,166.24892409984022,,,,,,,,,,166.2345880996436,166.24892409984022,166.7487500999123,166.73198300041258,0.5,166.73200280033052,166.7487500999123,166.7487500999123,166.84907609969378,167.2319417996332,167.2319417996332,167.24876429978758,167.86804590001702,right,1,0.6313733998686075,None,,,,,,,,,,,,,,,,,,,,,,,,,,,,,,,,,,Quartz,1,22,Female,White,N/A,2024-12-06_10h58.59.245,dissANT,2023.2.3,60.39945780196241,2024-12-06 11h00.18.877861 -0600,
lower.png,neutralRight.png,left,180,,,,,0,0,0,0,0,7,7,44,167.882181099616,,,,,,,,,,167.86971569992602,167.882181099616,168.2818997995928,168.2680173004046,0.4,168.26810119953007,168.2818997995928,168.2818997995928,168.3820871002972,168.78202250041068,168.78202250041068,168.78202250041068,169.2498813997954,left,1,0.46553680021315813,None,,,,,,,,,,,,,,,,,,,,,,,,,,,,,,,,,,Quartz,1,22,Female,White,N/A,2024-12-06_10h58.59.245,dissANT,2023.2.3,60.39945780196241,2024-12-06 11h00.18.877861 -0600,
both.png,neutralLeft.png,right,180,,,,,0,0,0,0,0,8,8,37,169.26500680018216,,,,,,,,,,169.25105409976095,169.26500680018216,169.71537750028074,169.7006946001202,0.45,169.7008042000234,169.71537750028074,169.71537750028074,169.81543410010636,170.21593459974974,170.21593459974974,170.21593459974974,170.59949009958655,right,1,0.3822138998657465,None,,,,,,,,,,,,,,,,,,,,,,,,,,,,,,,,,,Quartz,1,22,Female,White,N/A,2024-12-06_10h58.59.245,dissANT,2023.2.3,60.39945780196241,2024-12-06 11h00.18.877861 -0600,
upper.png,incongLeft.png,left,0,,,,,0,0,0,0,0,9,9,16,170.61522379983217,,,,,,,,,,170.60026810038835,170.61522379983217,171.11505619995296,171.10059489961714,0.5,171.10066100023687,171.11505619995296,171.11505619995296,171.2153589995578,171.61544310022146,171.61544310022146,171.61544310022146,172.25196260027587,left,1,0.6207148004323244,None,,,,,,,,,,,,,,,,,,,,,,,,,,,,,,,,,,Quartz,1,22,Female,White,N/A,2024-12-06_10h58.59.245,dissANT,2023.2.3,60.39945780196241,2024-12-06 11h00.18.877861 -0600,
upper.png,incongRight.png,right,0,,,,,0,0,0,0,0,10,10,24,172.26530359964818,,,,,,,,,,172.25303110014647,172.26530359964818,172.76555259991437,172.75021620001644,0.5,172.75027689989656,172.76555259991437,172.76555259991437,172.8654052997008,173.2655234001577,173.2655234001577,173.2655234001577,173.848701399751,right,1,0.5681191999465227,None,,,,,,,,,,,,,,,,,,,,,,,,,,,,,,,,,,Quartz,1,22,Female,White,N/A,2024-12-06_10h58.59.245,dissANT,2023.2.3,60.39945780196241,2024-12-06 11h00.18.877861 -0600,
both.png,neutralRight.png,right,0,,,,,0,0,0,0,0,11,11,41,173.86490270029753,,,,,,,,,,173.84897529985756,173.86490270029753,174.3655578000471,174.3494789004326,0.5,174.34952319972217,174.3655578000471,174.3655578000471,174.46541049983352,174.84867930039763,174.84867930039763,174.8653998998925,175.39876999985427,right,1,0.5376288993284106,None,,,,,,,,,,,,,,,,,,,,,,,,,,,,,,,,,,Quartz,1,22,Female,White,N/A,2024-12-06_10h58.59.245,dissANT,2023.2.3,60.39945780196241,2024-12-06 11h00.18.877861 -0600,
blank.png,incongLeft.png,left,0,,,,,0,0,0,0,0,12,12,19,175.41520719975233,,,,,,,,,,175.39937989972532,175.41520719975233,175.96542309969664,175.9491384997964,0.55,175.9491811003536,175.96542309969664,175.96542309969664,176.06525320000947,176.44907729979604,176.44907729979604,176.4651103001088,176.9514351002872,left,1,0.49680009949952364,None,,,,,,,,,,,,,,,,,,,,,,,,,,,,,,,,,,Quartz,1,22,Female,White,N/A,2024-12-06_10h58.59.245,dissANT,2023.2.3,60.39945780196241,2024-12-06 11h00.18.877861 -0600,
blank.png,incongRight.png,right,0,,,,,0,0,0,0,0,13,13,27,176.96492370031774,,,,,,,,,,176.9529411001131,176.96492370031774,177.41520479973406,177.40000720042735,0.45,177.40008169971406,177.41520479973406,177.41520479973406,177.51520830020308,177.9152229996398,177.9152229996398,177.9152229996398,178.51749170012772,right,1,0.5856842994689941,None,,,,,,,,,,,,,,,,,,,,,,,,,,,,,,,,,,Quartz,1,22,Female,White,N/A,2024-12-06_10h58.59.245,dissANT,2023.2.3,60.39945780196241,2024-12-06 11h00.18.877861 -0600,
both.png,incongRight.png,right,0,,,,,0,0,0,0,0,14,14,25,178.53189290035516,,,,,,,,,,178.51899299956858,178.53189290035516,178.98197999969125,178.96696009952575,0.45,178.96701520029455,178.98197999969125,178.98197999969125,179.0820600995794,179.48206599988043,179.48206599988043,179.48206599988043,180.11748600006104,right,1,0.629772899672389,None,,,,,,,,,,,,,,,,,,,,,,,,,,,,,,,,,,Quartz,1,22,Female,White,N/A,2024-12-06_10h58.59.245,dissANT,2023.2.3,60.39945780196241,2024-12-06 11h00.18.877861 -0600,
blank.png,neutralLeft.png,left,0,,,,,0,0,0,0,0,15,15,35,180.1318626999855,,,,,,,,,,180.11886539962143,180.1318626999855,180.6815996002406,180.66717339958996,0.55,180.6672219997272,180.6815996002406,180.6815996002406,180.78147349972278,181.18240830022842,181.18240830022842,181.18240830022842,181.68293869961053,left,1,0.485266400501132,None,,,,,,,,,,,,,,,,,,,,,,,,,,,,,,,,,,Quartz,1,22,Female,White,N/A,2024-12-06_10h58.59.245,dissANT,2023.2.3,60.39945780196241,2024-12-06 11h00.18.877861 -0600,
blank.png,incongRight.png,left,180,,,,,0,0,0,0,0,16,16,31,181.6985903000459,,,,,,,,,,181.68430859968066,181.6985903000459,182.2485148003325,182.23213929962367,0.55,182.2321720002219,182.2485148003325,182.2485148003325,182.3485220996663,182.73172479961067,182.73172479961067,182.7484208997339,183.3852687999606,left,1,0.6422680001705885,None,,,,,,,,,,,,,,,,,,,,,,,,,,,,,,,,,,Quartz,1,22,Female,White,N/A,2024-12-06_10h58.59.245,dissANT,2023.2.3,60.39945780196241,2024-12-06 11h00.18.877861 -0600,
centre.png,congLeft.png,right,180,,,,,0,0,0,0,0,17,17,6,183.39854350034148,,,,,,,,,,183.38717119954526,183.39854350034148,183.9485339000821,183.93238670006394,0.55,183.93243480008096,183.9485339000821,183.9485339000821,184.04839080013335,184.43181079998612,184.43181079998612,184.4484385997057,184.88460650015622,right,1,0.44086370058357716,None,,,,,,,,,,,,,,,,,,,,,,,,,,,,,,,,,,Quartz,1,22,Female,White,N/A,2024-12-06_10h58.59.245,dissANT,2023.2.3,60.39945780196241,2024-12-06 11h00.18.877861 -0600,
centre.png,neutralLeft.png,right,180,,,,,0,0,0,0,0,18,18,38,184.89856070000678,,,,,,,,,,184.88646730035543,184.89856070000678,185.29828010033816,185.28311270009726,0.4,185.28317650035024,185.29828010033816,185.29828010033816,185.39840940013528,185.79853700008243,185.79853700008243,185.79853700008243,186.23434900026768,right,1,0.4268078003078699,None,,,,,,,,,,,,,,,,,,,,,,,,,,,,,,,,,,Quartz,1,22,Female,White,N/A,2024-12-06_10h58.59.245,dissANT,2023.2.3,60.39945780196241,2024-12-06 11h00.18.877861 -0600,
blank.png,neutralRight.png,left,180,,,,,0,0,0,0,0,19,19,47,186.24864200036973,,,,,,,,,,186.2362174000591,186.24864200036973,186.7483264002949,186.7331598000601,0.5,186.73322029970586,186.7483264002949,186.7483264002949,186.84849440027028,187.2484050001949,187.2484050001949,187.2484050001949,187.7176906997338,left,1,0.45763690024614334,None,,,,,,,,,,,,,,,,,,,,,,,,,,,,,,,,,,Quartz,1,22,Female,White,N/A,2024-12-06_10h58.59.245,dissANT,2023.2.3,60.39945780196241,2024-12-06 11h00.18.877861 -0600,
lower.png,congRight.png,left,180,,,,,0,0,0,0,0,20,20,12,187.7316934997216,,,,,,,,,,187.71915940009058,187.7316934997216,188.1815579002723,188.16682870034128,0.45,188.166887300089,188.1815579002723,188.1815579002723,188.28158370032907,188.681822899729,188.681822899729,188.681822899729,189.06684380024672,left,1,0.38045520056039095,None,,,,,,,,,,,,,,,,,,,,,,,,,,,,,,,,,,Quartz,1,22,Female,White,N/A,2024-12-06_10h58.59.245,dissANT,2023.2.3,60.39945780196241,2024-12-06 11h00.18.877861 -0600,
centre.png,congLeft.png,left,0,,,,,0,0,0,0,0,21,21,2,189.08134560007602,,,,,,,,,,189.06732359994203,189.08134560007602,189.58174270018935,189.56690699979663,0.5,189.5669627999887,189.58174270018935,189.58174270018935,189.681544999592,190.08172420039773,190.08172420039773,190.08172420039773,190.53442810010165,left,1,0.4433286003768444,None,,,,,,,,,,,,,,,,,,,,,,,,,,,,,,,,,,Quartz,1,22,Female,White,N/A,2024-12-06_10h58.59.245,dissANT,2023.2.3,60.39945780196241,2024-12-06 11h00.18.877861 -0600,
both.png,congLeft.png,right,180,,,,,0,0,0,0,0,22,22,5,190.54823909979314,,,,,,,,,,190.53621789999306,190.54823909979314,190.94814119953662,190.93379580043256,0.4,190.93386899959296,190.94814119953662,190.94814119953662,191.0484424000606,191.44856359995902,191.44856359995902,191.44856359995902,191.88480340037495,right,1,0.4190667998045683,None,,,,,,,,,,,,,,,,,,,,,,,,,,,,,,,,,,Quartz,1,22,Female,White,N/A,2024-12-06_10h58.59.245,dissANT,2023.2.3,60.39945780196241,2024-12-06 11h00.18.877861 -0600,
centre.png,neutralRight.png,left,180,,,,,0,0,0,0,0,23,23,46,191.8983936002478,,,,,,,,,,191.88652549963444,191.8983936002478,192.3984725996852,192.3834426999092,0.5,192.38349719997495,192.3984725996852,192.3984725996852,192.4981952002272,192.8981675999239,192.8981675999239,192.8981675999239,193.3676730999723,left,1,0.453855000436306,None,,,,,,,,,,,,,,,,,,,,,,,,,,,,,,,,,,Quartz,1,22,Female,White,N/A,2024-12-06_10h58.59.245,dissANT,2023.2.3,60.39945780196241,2024-12-06 11h00.18.877861 -0600,
lower.png,incongLeft.png,right,180,,,,,0,0,0,0,0,24,24,20,193.38156289979815,,,,,,,,,,193.3690871996805,193.38156289979815,193.831442900002,193.81540619954467,0.45,193.81545360013843,193.831442900002,193.831442900002,193.93094970006496,194.3151538996026,194.3151538996026,194.33140419982374,194.6676666000858,left,0,0.34706979990005493,None,,,,,,,,,,,,,,,,,,,,,,,,,,,,,,,,,,Quartz,1,22,Female,White,N/A,2024-12-06_10h58.59.245,dissANT,2023.2.3,60.39945780196241,2024-12-06 11h00.18.877861 -0600,
centre.png,congRight.png,right,0,,,,,0,0,0,0,0,25,25,10,194.6812725001946,,,,,,,,,,194.66928050015122,194.6812725001946,195.231166199781,195.21635880041867,0.55,195.216418299824,195.231166199781,195.231166199781,195.33134820032865,195.73155970033258,195.73155970033258,195.73155970033258,196.14929379988462,right,1,0.4068969003856182,None,,,,,,,,,,,,,,,,,,,,,,,,,,,,,,,,,,Quartz,1,22,Female,White,N/A,2024-12-06_10h58.59.245,dissANT,2023.2.3,60.39945780196241,2024-12-06 11h00.18.877861 -0600,
centre.png,neutralLeft.png,left,0,,,,,0,0,0,0,0,26,26,34,196.16470049973577,,,,,,,,,,196.15047310013324,196.16470049973577,196.6148068998009,196.5997831998393,0.45,196.5998429004103,196.6148068998009,196.6148068998009,196.71471400000155,197.11472550034523,197.11472550034523,197.11472550034523,197.55043809954077,left,1,0.4294039998203516,None,,,,,,,,,,,,,,,,,,,,,,,,,,,,,,,,,,Quartz,1,22,Female,White,N/A,2024-12-06_10h58.59.245,dissANT,2023.2.3,60.39945780196241,2024-12-06 11h00.18.877861 -0600,
both.png,incongLeft.png,left,0,,,,,0,0,0,0,0,27,27,17,197.56481899973005,,,,,,,,,,197.5518033998087,197.56481899973005,198.1149573000148,198.09971399977803,0.55,198.09976760018617,198.1149573000148,198.1149573000148,198.21488649956882,198.61486610025167,198.61486610025167,198.61486610025167,199.18277020007372,left,1,0.5654180999845266,None,,,,,,,,,,,,,,,,,,,,,,,,,,,,,,,,,,Quartz,1,22,Female,White,N/A,2024-12-06_10h58.59.245,dissANT,2023.2.3,60.39945780196241,2024-12-06 11h00.18.877861 -0600,
lower.png,congLeft.png,right,180,,,,,0,0,0,0,0,28,28,4,199.19796419981867,,,,,,,,,,199.18404760025442,199.19796419981867,199.59796859975904,199.58305659983307,0.4,199.5831230999902,199.59796859975904,199.59796859975904,199.69810989964753,200.098123899661,200.098123899661,200.098123899661,200.6507579004392,right,1,0.5476265996694565,None,,,,,,,,,,,,,,,,,,,,,,,,,,,,,,,,,,Quartz,1,22,Female,White,N/A,2024-12-06_10h58.59.245,dissANT,2023.2.3,60.39945780196241,2024-12-06 11h00.18.877861 -0600,
blank.png,incongLeft.png,right,180,,,,,0,0,0,0,0,29,29,23,200.66469759959728,,,,,,,,,,200.65356200002134,200.66469759959728,201.16467360034585,201.14846189972013,0.5,201.14849440008402,201.16467360034585,201.16467360034585,201.26430699974298,201.6481365999207,201.6481365999207,201.6648038001731,202.282855800353,right,1,0.6197040993720293,None,,,,,,,,,,,,,,,,,,,,,,,,,,,,,,,,,,Quartz,1,22,Female,White,N/A,2024-12-06_10h58.59.245,dissANT,2023.2.3,60.39945780196241,2024-12-06 11h00.18.877861 -0600,
both.png,incongLeft.png,right,180,,,,,0,0,0,0,0,30,30,21,202.2980888998136,,,,,,,,,,202.28354190010577,202.2980888998136,202.69780480023474,202.6826651999727,0.4,202.6827349998057,202.69780480023474,202.69780480023474,202.798024199903,203.19827259983867,203.19827259983867,203.19827259983867,203.75011339969933,right,1,0.5458693997934461,None,,,,,,,,,,,,,,,,,,,,,,,,,,,,,,,,,,Quartz,1,22,Female,White,N/A,2024-12-06_10h58.59.245,dissANT,2023.2.3,60.39945780196241,2024-12-06 11h00.18.877861 -0600,
blank.png,congRight.png,right,0,,,,,0,0,0,0,0,31,31,11,203.76468539983034,,,,,,,,,,203.7517357999459,203.76468539983034,204.31451880000532,204.2997746001929,0.55,204.29984030034393,204.31451880000532,204.31451880000532,204.414589099586,204.8148296996951,204.8148296996951,204.8148296996951,205.30051789991558,right,1,0.471667000092566,None,,,,,,,,,,,,,,,,,,,,,,,,,,,,,,,,,,Quartz,1,22,Female,White,N/A,2024-12-06_10h58.59.245,dissANT,2023.2.3,60.39945780196241,2024-12-06 11h00.18.877861 -0600,
upper.png,congRight.png,right,0,,,,,0,0,0,0,0,32,32,8,205.3145342003554,,,,,,,,,,205.30211819987744,205.3145342003554,205.86456559970975,205.8496131999418,0.55,205.84967110026628,205.86456559970975,205.86456559970975,205.96460520010442,206.36418149992824,206.36418149992824,206.36418149992824,206.7505924999714,right,1,0.3803677000105381,None,,,,,,,,,,,,,,,,,,,,,,,,,,,,,,,,,,Quartz,1,22,Female,White,N/A,2024-12-06_10h58.59.245,dissANT,2023.2.3,60.39945780196241,2024-12-06 11h00.18.877861 -0600,
centre.png,incongRight.png,left,180,,,,,0,0,0,0,0,33,33,30,206.764602500014,,,,,,,,,,206.7519669001922,206.764602500014,207.3144292999059,207.29949980042875,0.55,207.2995656998828,207.3144292999059,207.3144292999059,207.4146320000291,207.8147799000144,207.8147799000144,207.8147799000144,208.45073040015996,left,1,0.6179196992889047,None,,,,,,,,,,,,,,,,,,,,,,,,,,,,,,,,,,Quartz,1,22,Female,White,N/A,2024-12-06_10h58.59.245,dissANT,2023.2.3,60.39945780196241,2024-12-06 11h00.18.877861 -0600,
upper.png,neutralRight.png,right,0,,,,,0,0,0,0,0,34,34,40,208.46447070036083,,,,,,,,,,208.45246179960668,208.46447070036083,208.96450040023774,208.94876720011234,0.5,208.948808000423,208.96450040023774,208.96450040023774,209.0646144002676,209.46459740027785,209.46459740027785,209.46459740027785,209.91749249957502,right,1,0.44241120014339685,None,,,,,,,,,,,,,,,,,,,,,,,,,,,,,,,,,,Quartz,1,22,Female,White,N/A,2024-12-06_10h58.59.245,dissANT,2023.2.3,60.39945780196241,2024-12-06 11h00.18.877861 -0600,
both.png,neutralLeft.png,left,0,,,,,0,0,0,0,0,35,35,33,209.93100020010024,,,,,,,,,,209.9191233003512,209.93100020010024,210.381100400351,210.3660040004179,0.45,210.36606370005757,210.381100400351,210.381100400351,210.4810153003782,210.88117050006986,210.88117050006986,210.88117050006986,211.34958770032972,left,1,0.4635843001306057,None,,,,,,,,,,,,,,,,,,,,,,,,,,,,,,,,,,Quartz,1,22,Female,White,N/A,2024-12-06_10h58.59.245,dissANT,2023.2.3,60.39945780196241,2024-12-06 11h00.18.877861 -0600,
blank.png,congLeft.png,right,180,,,,,0,0,0,0,0,36,36,7,211.3642410999164,,,,,,,,,,211.35102669987828,211.3642410999164,211.9144443999976,211.89961570035666,0.55,211.89967750012875,211.9144443999976,211.9144443999976,212.01391560025513,212.41391150001436,212.41391150001436,212.41391150001436,212.8666078997776,right,1,0.4478008998557925,None,,,,,,,,,,,,,,,,,,,,,,,,,,,,,,,,,,Quartz,1,22,Female,White,N/A,2024-12-06_10h58.59.245,dissANT,2023.2.3,60.39945780196241,2024-12-06 11h00.18.877861 -0600,
both.png,congRight.png,left,180,,,,,0,0,0,0,0,37,37,13,212.8811422996223,,,,,,,,,,212.86819809954613,212.8811422996223,213.43103250022978,213.41576590016484,0.55,213.41582440026104,213.43103250022978,213.43103250022978,213.53083700034767,213.9312348002568,213.9312348002568,213.9312348002568,214.35031819995493,left,1,0.40125309955328703,None,,,,,,,,,,,,,,,,,,,,,,,,,,,,,,,,,,Quartz,1,22,Female,White,N/A,2024-12-06_10h58.59.245,dissANT,2023.2.3,60.39945780196241,2024-12-06 11h00.18.877861 -0600,
upper.png,congLeft.png,left,0,,,,,0,0,0,0,0,38,38,0,214.36431690026075,,,,,,,,,,214.35181859973818,214.36431690026075,214.76422869972885,214.74971020035446,0.4,214.74978299997747,214.76422869972885,214.76422869972885,214.8643543999642,215.2644825996831,215.2644825996831,215.2644825996831,215.69945299997926,left,1,0.4222454000264406,None,,,,,,,,,,,,,,,,,,,,,,,,,,,,,,,,,,Quartz,1,22,Female,White,N/A,2024-12-06_10h58.59.245,dissANT,2023.2.3,60.39945780196241,2024-12-06 11h00.18.877861 -0600,
centre.png,incongLeft.png,left,0,,,,,0,0,0,0,0,39,39,18,215.71386769972742,,,,,,,,,,215.70099520031363,215.71386769972742,216.21422609966248,216.19995579961687,0.5,216.2000323999673,216.21422609966248,216.21422609966248,216.31443610042334,216.71445980016142,216.71445980016142,216.71445980016142,217.1504896003753,right,0,0.4316338999196887,None,,,,,,,,,,,,,,,,,,,,,,,,,,,,,,,,,,Quartz,1,22,Female,White,N/A,2024-12-06_10h58.59.245,dissANT,2023.2.3,60.39945780196241,2024-12-06 11h00.18.877861 -0600,
both.png,congLeft.png,left,0,,,,,0,0,0,0,0,40,40,1,217.1641820995137,,,,,,,,,,217.1519948998466,217.1641820995137,217.61419629957527,217.5983891999349,0.45,217.59843880031258,217.61419629957527,217.61419629957527,217.71432910021394,218.09766600001603,218.09766600001603,218.11448779981583,218.5838898997754,left,1,0.4703599000349641,None,,,,,,,,,,,,,,,,,,,,,,,,,,,,,,,,,,Quartz,1,22,Female,White,N/A,2024-12-06_10h58.59.245,dissANT,2023.2.3,60.39945780196241,2024-12-06 11h00.18.877861 -0600,
both.png,incongRight.png,left,180,,,,,0,0,0,0,0,41,41,29,218.5971171995625,,,,,,,,,,218.58577299956232,218.5971171995625,218.9975416995585,218.98187419958413,0.4,218.98192850034684,218.9975416995585,218.9975416995585,219.0974732004106,219.4811992002651,219.4811992002651,219.4973820000887,220.25123739987612,left,1,0.758097100071609,None,,,,,,,,,,,,,,,,,,,,,,,,,,,,,,,,,,Quartz,1,22,Female,White,N/A,2024-12-06_10h58.59.245,dissANT,2023.2.3,60.39945780196241,2024-12-06 11h00.18.877861 -0600,
centre.png,congRight.png,left,180,,,,,0,0,0,0,0,42,42,14,220.2641315003857,,,,,,,,,,220.25302250031382,220.2641315003857,220.76403780002147,220.74901039991528,0.5,220.74907500017434,220.76403780002147,220.76403780002147,220.86428599990904,221.2638603001833,221.2638603001833,221.2638603001833,221.79782889969647,left,1,0.52691510040313,None,,,,,,,,,,,,,,,,,,,,,,,,,,,,,,,,,,Quartz,1,22,Female,White,N/A,2024-12-06_10h58.59.245,dissANT,2023.2.3,60.39945780196241,2024-12-06 11h00.18.877861 -0600,
blank.png,congRight.png,left,180,,,,,0,0,0,0,0,43,43,15,221.81411449983716,,,,,,,,,,221.7983534997329,221.81411449983716,222.21397130005062,222.19898280035704,0.4,222.19904160033911,222.21397130005062,222.21397130005062,222.31437570042908,222.71437089983374,222.71437089983374,222.71437089983374,223.26583429984748,left,1,0.5464896997436881,None,,,,,,,,,,,,,,,,,,,,,,,,,,,,,,,,,,Quartz,1,22,Female,White,N/A,2024-12-06_10h58.59.245,dissANT,2023.2.3,60.39945780196241,2024-12-06 11h00.18.877861 -0600,
blank.png,congLeft.png,left,0,,,,,0,0,0,0,0,44,44,3,223.28063870035112,,,,,,,,,,223.2667068000883,223.28063870035112,223.83062690030783,223.81483120005578,0.55,223.8148814002052,223.83062690030783,223.83062690030783,223.93059740029275,224.31446009967476,224.31446009967476,224.3307684995234,224.83371930010617,left,1,0.5144199999049306,None,,,,,,,,,,,,,,,,,,,,,,,,,,,,,,,,,,Quartz,1,22,Female,White,N/A,2024-12-06_10h58.59.245,dissANT,2023.2.3,60.39945780196241,2024-12-06 11h00.18.877861 -0600,
blank.png,neutralLeft.png,right,180,,,,,0,0,0,0,0,45,45,39,224.84757969994098,,,,,,,,,,224.83559380006045,224.84757969994098,225.3475107997656,225.3327834997326,0.5,225.33286879956722,225.3475107997656,225.3475107997656,225.44753719959408,225.84700420033187,225.84700420033187,225.84700420033187,226.53356369957328,right,1,0.6718295002356172,None,,,,,,,,,,,,,,,,,,,,,,,,,,,,,,,,,,Quartz,1,22,Female,White,N/A,2024-12-06_10h58.59.245,dissANT,2023.2.3,60.39945780196241,2024-12-06 11h00.18.877861 -0600,
centre.png,incongRight.png,right,0,,,,,0,0,0,0,0,46,46,26,226.54765969980508,,,,,,,,,,226.53531139995903,226.54765969980508,226.94741799961776,226.93236839957535,0.4,226.93242979981005,226.94741799961776,226.94741799961776,227.04705690033734,227.4477340001613,227.4477340001613,227.4477340001613,228.1667857002467,right,1,0.7021634001284838,None,,,,,,,,,,,,,,,,,,,,,,,,,,,,,,,,,,Quartz,1,22,Female,White,N/A,2024-12-06_10h58.59.245,dissANT,2023.2.3,60.39945780196241,2024-12-06 11h00.18.877861 -0600,
both.png,neutralRight.png,left,180,,,,,0,0,0,0,0,47,47,45,228.18034549988806,,,,,,,,,,228.16838029958308,228.18034549988806,228.63062260020524,228.61607019975781,0.45,228.6161369998008,228.63062260020524,228.63062260020524,228.7305602002889,229.130767500028,229.130767500028,229.130767500028,229.6837868001312,left,1,0.5404075998812914,None,,,,,,,,,,,,,,,,,,,,,,,,,,,,,,,,,,Quartz,1,22,Female,White,N/A,2024-12-06_10h58.59.245,dissANT,2023.2.3,60.39945780196241,2024-12-06 11h00.18.877861 -0600,
lower.png,congLeft.png,right,180,,,,,0,0,0,0,1,0,48,4,229.6973262000829,,,,,,,,,,229.68565529957414,229.6973262000829,230.09724489971995,230.08229309972376,0.4,230.0823534000665,230.09724489971995,230.09724489971995,230.19716050010175,230.59736969973892,230.59736969973892,230.59736969973892,231.14964359998703,right,1,0.543312800116837,None,,,,,,,,,,,,,,,,,,,,,,,,,,,,,,,,,,Quartz,1,22,Female,White,N/A,2024-12-06_10h58.59.245,dissANT,2023.2.3,60.39945780196241,2024-12-06 11h00.18.877861 -0600,
blank.png,incongRight.png,right,0,,,,,0,0,0,0,1,1,49,27,231.1642154995352,,,,,,,,,,231.15099519956857,231.1642154995352,231.56385110039264,231.54946010001004,0.4,231.549545600079,231.56385110039264,231.56385110039264,231.66354690026492,232.06350190006196,232.06350190006196,232.06350190006196,232.6830567996949,right,1,0.6034731008112431,None,,,,,,,,,,,,,,,,,,,,,,,,,,,,,,,,,,Quartz,1,22,Female,White,N/A,2024-12-06_10h58.59.245,dissANT,2023.2.3,60.39945780196241,2024-12-06 11h00.18.877861 -0600,
upper.png,incongLeft.png,left,0,,,,,0,0,0,0,1,2,50,16,232.69732050038874,,,,,,,,,,232.68415270000696,232.69732050038874,233.2471861001104,233.2321694996208,0.55,233.23222829960287,233.2471861001104,233.2471861001104,233.34734429977834,233.74731650017202,233.74731650017202,233.74731650017202,234.30092110019177,left,1,0.5508161000907421,None,,,,,,,,,,,,,,,,,,,,,,,,,,,,,,,,,,Quartz,1,22,Female,White,N/A,2024-12-06_10h58.59.245,dissANT,2023.2.3,60.39945780196241,2024-12-06 11h00.18.877861 -0600,
blank.png,incongRight.png,left,180,,,,,0,0,0,0,1,3,51,31,234.31375689990819,,,,,,,,,,234.3023837003857,234.31375689990819,234.86413970030844,234.84898149967194,0.55,234.84903979953378,234.86413970030844,234.86413970030844,234.96401899959892,235.36393550038338,235.36393550038338,235.36393550038338,235.94748079963028,left,1,0.5698083005845547,None,,,,,,,,,,,,,,,,,,,,,,,,,,,,,,,,,,Quartz,1,22,Female,White,N/A,2024-12-06_10h58.59.245,dissANT,2023.2.3,60.39945780196241,2024-12-06 11h00.18.877861 -0600,
blank.png,neutralLeft.png,right,180,,,,,0,0,0,0,1,4,52,39,235.96341449953616,,,,,,,,,,235.94790100026876,235.96341449953616,236.4139881003648,236.39913260005414,0.45,236.39919850043952,236.4139881003648,236.4139881003648,236.51397760026157,236.91392130032182,236.91392130032182,236.91392130032182,237.43470389954746,right,1,0.5177683997899294,None,,,,,,,,,,,,,,,,,,,,,,,,,,,,,,,,,,Quartz,1,22,Female,White,N/A,2024-12-06_10h58.59.245,dissANT,2023.2.3,60.39945780196241,2024-12-06 11h00.18.877861 -0600,
both.png,neutralLeft.png,left,0,,,,,0,0,0,0,1,5,53,33,237.44736220035702,,,,,,,,,,237.43647469952703,237.44736220035702,237.94674229994416,237.9321127999574,0.5,237.93217399995774,237.94674229994416,237.94674229994416,238.04720450006425,238.44721950031817,238.44721950031817,238.44721950031817,238.9148936998099,left,1,0.46461480017751455,None,,,,,,,,,,,,,,,,,,,,,,,,,,,,,,,,,,Quartz,1,22,Female,White,N/A,2024-12-06_10h58.59.245,dissANT,2023.2.3,60.39945780196241,2024-12-06 11h00.18.877861 -0600,
both.png,incongRight.png,right,0,,,,,0,0,0,0,1,6,54,25,238.9305282002315,,,,,,,,,,238.9164343997836,238.9305282002315,239.33005539979786,239.3158801998943,0.4,239.31595479976386,239.33005539979786,239.33005539979786,239.43047050014138,239.83052960038185,239.83052960038185,239.83052960038185,240.41466050036252,right,1,0.5785395000129938,None,,,,,,,,,,,,,,,,,,,,,,,,,,,,,,,,,,Quartz,1,22,Female,White,N/A,2024-12-06_10h58.59.245,dissANT,2023.2.3,60.39945780196241,2024-12-06 11h00.18.877861 -0600,
both.png,congRight.png,left,180,,,,,0,0,0,0,1,7,55,13,240.43005389999598,,,,,,,,,,240.41571629978716,240.43005389999598,240.88031729962677,240.86618859972805,0.45,240.86626629997045,240.88031729962677,240.88031729962677,240.98043209966272,241.38047069963068,241.38047069963068,241.38047069963068,241.9167197998613,left,1,0.5183786991983652,None,,,,,,,,,,,,,,,,,,,,,,,,,,,,,,,,,,Quartz,1,22,Female,White,N/A,2024-12-06_10h58.59.245,dissANT,2023.2.3,60.39945780196241,2024-12-06 11h00.18.877861 -0600,
centre.png,incongLeft.png,left,0,,,,,0,0,0,0,1,8,56,18,241.9303008997813,,,,,,,,,,241.91844359971583,241.9303008997813,242.38051069993526,242.36414409987628,0.45,242.3641755003482,242.38051069993526,242.38051069993526,242.4804018996656,242.86385599989444,242.86385599989444,242.88033839967102,243.38199049979448,left,1,0.5071379002183676,None,,,,,,,,,,,,,,,,,,,,,,,,,,,,,,,,,,Quartz,1,22,Female,White,N/A,2024-12-06_10h58.59.245,dissANT,2023.2.3,60.39945780196241,2024-12-06 11h00.18.877861 -0600,
blank.png,incongLeft.png,left,0,,,,,0,0,0,0,1,9,57,19,243.39722159970552,,,,,,,,,,243.38341050036252,243.39722159970552,243.8970384001732,243.8822759995237,0.5,243.88236020039767,243.8970384001732,243.8970384001732,243.99648299999535,244.39690070040524,244.39690070040524,244.39690070040524,244.88328159973025,left,1,0.47102569974958897,None,,,,,,,,,,,,,,,,,,,,,,,,,,,,,,,,,,Quartz,1,22,Female,White,N/A,2024-12-06_10h58.59.245,dissANT,2023.2.3,60.39945780196241,2024-12-06 11h00.18.877861 -0600,
centre.png,incongRight.png,right,0,,,,,0,0,0,0,1,10,58,26,244.89701490011066,,,,,,,,,,244.88497679959983,244.89701490011066,245.29692650027573,245.28225139994174,0.4,245.28234949987382,245.29692650027573,245.29692650027573,245.39728430006653,245.79639139957726,245.79639139957726,245.79639139957726,246.3326300000772,right,1,0.5297836000099778,None,,,,,,,,,,,,,,,,,,,,,,,,,,,,,,,,,,Quartz,1,22,Female,White,N/A,2024-12-06_10h58.59.245,dissANT,2023.2.3,60.39945780196241,2024-12-06 11h00.18.877861 -0600,
both.png,neutralLeft.png,right,180,,,,,0,0,0,0,1,11,59,37,246.34704849962145,,,,,,,,,,246.33409080002457,246.34704849962145,246.84670150000602,246.83251329977065,0.5,246.83259939961135,246.84670150000602,246.84670150000602,246.94694350007921,247.3471590001136,247.3471590001136,247.3471590001136,247.8328414997086,right,1,0.4814090998843312,None,,,,,,,,,,,,,,,,,,,,,,,,,,,,,,,,,,Quartz,1,22,Female,White,N/A,2024-12-06_10h58.59.245,dissANT,2023.2.3,60.39945780196241,2024-12-06 11h00.18.877861 -0600,
both.png,congLeft.png,right,180,,,,,0,0,0,0,1,12,60,5,247.84663399960846,,,,,,,,,,247.83422959968448,247.84663399960846,248.34710870031267,248.3307229001075,0.5,248.33076439984143,248.34710870031267,248.34710870031267,248.44702120032161,248.830405799672,248.830405799672,248.84636399988085,249.28264059964567,right,1,0.4474229998886585,None,,,,,,,,,,,,,,,,,,,,,,,,,,,,,,,,,,Quartz,1,22,Female,White,N/A,2024-12-06_10h58.59.245,dissANT,2023.2.3,60.39945780196241,2024-12-06 11h00.18.877861 -0600,
centre.png,neutralLeft.png,left,0,,,,,0,0,0,0,1,13,61,34,249.2969297003001,,,,,,,,,,249.28347990009934,249.2969297003001,249.74672960024327,249.73157159984112,0.45,249.73163970001042,249.74672960024327,249.74672960024327,249.84665310010314,250.24699269980192,250.24699269980192,250.24699269980192,250.8829324003309,left,1,0.6301702000200748,None,,,,,,,,,,,,,,,,,,,,,,,,,,,,,,,,,,Quartz,1,22,Female,White,N/A,2024-12-06_10h58.59.245,dissANT,2023.2.3,60.39945780196241,2024-12-06 11h00.18.877861 -0600,
blank.png,congRight.png,left,180,,,,,0,0,0,0,1,14,62,15,250.89696250017732,,,,,,,,,,250.88437370024621,250.89696250017732,251.44675100035965,251.43185110017657,0.55,251.431910100393,251.44675100035965,251.44675100035965,251.54700009990484,251.94694370031357,251.94694370031357,251.94694370031357,252.38309520017356,left,1,0.43302830029278994,None,,,,,,,,,,,,,,,,,,,,,,,,,,,,,,,,,,Quartz,1,22,Female,White,N/A,2024-12-06_10h58.59.245,dissANT,2023.2.3,60.39945780196241,2024-12-06 11h00.18.877861 -0600,
centre.png,incongLeft.png,right,180,,,,,0,0,0,0,1,15,63,22,252.39683109987527,,,,,,,,,,252.38452600035816,252.39683109987527,252.7968745995313,252.7807724000886,0.4,252.78081099968404,252.7968745995313,252.7968745995313,252.89686440024525,253.28033289965242,253.28033289965242,253.29668499995023,253.73101729992777,left,0,0.4405846996232867,None,,,,,,,,,,,,,,,,,,,,,,,,,,,,,,,,,,Quartz,1,22,Female,White,N/A,2024-12-06_10h58.59.245,dissANT,2023.2.3,60.39945780196241,2024-12-06 11h00.18.877861 -0600,
blank.png,congLeft.png,right,180,,,,,0,0,0,0,1,16,64,7,253.74612160027027,,,,,,,,,,253.73197869956493,253.74612160027027,254.29645679984242,254.2813047003001,0.55,254.28132759965956,254.29645679984242,254.29645679984242,254.39642889983952,254.79694470018148,254.79694470018148,254.79694470018148,255.23230450041592,right,1,0.4258703999221325,None,,,,,,,,,,,,,,,,,,,,,,,,,,,,,,,,,,Quartz,1,22,Female,White,N/A,2024-12-06_10h58.59.245,dissANT,2023.2.3,60.39945780196241,2024-12-06 11h00.18.877861 -0600,
upper.png,neutralRight.png,right,0,,,,,0,0,0,0,1,17,65,40,255.24686659965664,,,,,,,,,,255.23373600002378,255.24686659965664,255.79649950005114,255.78180429991335,0.55,255.78186540026218,255.79649950005114,255.79649950005114,255.89693170040846,256.29634409956634,256.29634409956634,256.29634409956634,256.71680460032076,right,1,0.41248240042477846,None,,,,,,,,,,,,,,,,,,,,,,,,,,,,,,,,,,Quartz,1,22,Female,White,N/A,2024-12-06_10h58.59.245,dissANT,2023.2.3,60.39945780196241,2024-12-06 11h00.18.877861 -0600,
both.png,congRight.png,right,0,,,,,0,0,0,0,1,18,66,9,256.72986849956214,,,,,,,,,,256.71866239979863,256.72986849956214,257.27997700031847,257.2636585002765,0.55,257.26368889957666,257.27997700031847,257.27997700031847,257.37960689980537,257.763703700155,257.763703700155,257.78009510040283,258.2162817995995,right,1,0.4460495002567768,None,,,,,,,,,,,,,,,,,,,,,,,,,,,,,,,,,,Quartz,1,22,Female,White,N/A,2024-12-06_10h58.59.245,dissANT,2023.2.3,60.39945780196241,2024-12-06 11h00.18.877861 -0600,
both.png,neutralRight.png,right,0,,,,,0,0,0,0,1,19,67,41,258.2299204003066,,,,,,,,,,258.2178084002808,258.2299204003066,258.7801797995344,258.7653638003394,0.55,258.7654398996383,258.7801797995344,258.7801797995344,258.88009400013834,259.27998160012066,259.27998160012066,259.27998160012066,259.71683290041983,right,1,0.4345259992405772,None,,,,,,,,,,,,,,,,,,,,,,,,,,,,,,,,,,Quartz,1,22,Female,White,N/A,2024-12-06_10h58.59.245,dissANT,2023.2.3,60.39945780196241,2024-12-06 11h00.18.877861 -0600,
blank.png,congLeft.png,left,0,,,,,0,0,0,0,1,20,68,3,259.7298833001405,,,,,,,,,,259.71813599951565,259.7298833001405,260.1801902996376,260.16487920004874,0.45,260.1649345997721,260.1801902996376,260.1801902996376,260.2800251003355,260.67998730018735,260.67998730018735,260.67998730018735,261.1337719997391,left,1,0.4497274998575449,None,,,,,,,,,,,,,,,,,,,,,,,,,,,,,,,,,,Quartz,1,22,Female,White,N/A,2024-12-06_10h58.59.245,dissANT,2023.2.3,60.39945780196241,2024-12-06 11h00.18.877861 -0600,
blank.png,neutralRight.png,left,180,,,,,0,0,0,0,1,21,69,47,261.1465111998841,,,,,,,,,,261.13567939959466,261.1465111998841,261.54666719958186,261.53123859968036,0.4,261.5312989000231,261.54666719958186,261.54666719958186,261.64667810034007,262.04665969964117,262.04665969964117,262.04665969964117,262.56292929966,left,1,0.5077285002917051,None,,,,,,,,,,,,,,,,,,,,,,,,,,,,,,,,,,Quartz,1,22,Female,White,N/A,2024-12-06_10h58.59.245,dissANT,2023.2.3,60.39945780196241,2024-12-06 11h00.18.877861 -0600,
centre.png,congLeft.png,left,0,,,,,0,0,0,0,1,22,70,2,262.5795211996883,,,,,,,,,,262.5633955998346,262.5795211996883,262.9798339996487,262.9648583000526,0.4,262.96490699984133,262.9798339996487,262.9798339996487,263.0797581002116,263.4797186003998,263.4797186003998,263.4797186003998,263.9661020003259,left,1,0.46879249997437,None,,,,,,,,,,,,,,,,,,,,,,,,,,,,,,,,,,Quartz,1,22,Female,White,N/A,2024-12-06_10h58.59.245,dissANT,2023.2.3,60.39945780196241,2024-12-06 11h00.18.877861 -0600,
blank.png,congRight.png,right,0,,,,,0,0,0,0,1,23,71,11,263.9798336997628,,,,,,,,,,263.96779549960047,263.9798336997628,264.42983059957623,264.41422769986093,0.45,264.41427780035883,264.42983059957623,264.42983059957623,264.53007389977574,264.9297540001571,264.9297540001571,264.9297540001571,265.4160599997267,right,1,0.47815310023725033,None,,,,,,,,,,,,,,,,,,,,,,,,,,,,,,,,,,Quartz,1,22,Female,White,N/A,2024-12-06_10h58.59.245,dissANT,2023.2.3,60.39945780196241,2024-12-06 11h00.18.877861 -0600,
lower.png,neutralRight.png,left,180,,,,,0,0,0,0,1,24,72,44,265.429761399515,,,,,,,,,,265.41748890001327,265.429761399515,265.8297643996775,265.8148191999644,0.4,265.8148796996102,265.8297643996775,265.8297643996775,265.92949379980564,266.32995299994946,266.32995299994946,266.32995299994946,266.74894960038364,left,1,0.4129856005311012,None,,,,,,,,,,,,,,,,,,,,,,,,,,,,,,,,,,Quartz,1,22,Female,White,N/A,2024-12-06_10h58.59.245,dissANT,2023.2.3,60.39945780196241,2024-12-06 11h00.18.877861 -0600,
lower.png,congRight.png,left,180,,,,,0,0,0,0,1,25,73,12,266.7630756003782,,,,,,,,,,266.75035320036113,266.7630756003782,267.3128584995866,267.29729510005563,0.55,267.29734409973025,267.3128584995866,267.3128584995866,267.4131407001987,267.7966406000778,267.7966406000778,267.8131288997829,268.18171279970556,left,1,0.3823621002957225,None,,,,,,,,,,,,,,,,,,,,,,,,,,,,,,,,,,Quartz,1,22,Female,White,N/A,2024-12-06_10h58.59.245,dissANT,2023.2.3,60.39945780196241,2024-12-06 11h00.18.877861 -0600,
lower.png,incongLeft.png,right,180,,,,,0,0,0,0,1,26,74,20,268.19677979964763,,,,,,,,,,268.18296050000936,268.19677979964763,268.69657630007714,268.68020419962704,0.5,268.68023889977485,268.69657630007714,268.69657630007714,268.79600359965116,269.19656919967383,269.19656919967383,269.19656919967383,269.7327156001702,right,1,0.5182079998776317,None,,,,,,,,,,,,,,,,,,,,,,,,,,,,,,,,,,Quartz,1,22,Female,White,N/A,2024-12-06_10h58.59.245,dissANT,2023.2.3,60.39945780196241,2024-12-06 11h00.18.877861 -0600,
centre.png,neutralRight.png,left,180,,,,,0,0,0,0,1,27,75,46,269.74648979958147,,,,,,,,,,269.7344573996961,269.74648979958147,270.1463837996125,270.131343299523,0.4,270.13141820020974,270.1463837996125,270.1463837996125,270.24637609999627,270.6466506002471,270.6466506002471,270.6466506002471,271.063023599796,left,1,0.4145273994654417,None,,,,,,,,,,,,,,,,,,,,,,,,,,,,,,,,,,Quartz,1,22,Female,White,N/A,2024-12-06_10h58.59.245,dissANT,2023.2.3,60.39945780196241,2024-12-06 11h00.18.877861 -0600,
upper.png,incongRight.png,right,0,,,,,0,0,0,0,1,28,76,24,271.0792795000598,,,,,,,,,,271.0633153002709,271.0792795000598,271.6293964004144,271.61274120025337,0.55,271.61275700014085,271.6293964004144,271.6293964004144,271.72974689956754,272.11299729999155,272.11299729999155,272.12985389959067,272.5976015003398,right,1,0.47973129991441965,None,,,,,,,,,,,,,,,,,,,,,,,,,,,,,,,,,,Quartz,1,22,Female,White,N/A,2024-12-06_10h58.59.245,dissANT,2023.2.3,60.39945780196241,2024-12-06 11h00.18.877861 -0600,
blank.png,incongLeft.png,right,180,,,,,0,0,0,0,1,29,77,23,272.61252679955214,,,,,,,,,,272.59875009953976,272.61252679955214,273.0624489998445,273.0461545996368,0.45,273.0461756000295,273.0624489998445,273.0624489998445,273.1623547002673,273.54575239960104,273.54575239960104,273.56239029951394,274.01313470024616,left,0,0.4547300999984145,None,,,,,,,,,,,,,,,,,,,,,,,,,,,,,,,,,,Quartz,1,22,Female,White,N/A,2024-12-06_10h58.59.245,dissANT,2023.2.3,60.39945780196241,2024-12-06 11h00.18.877861 -0600,
centre.png,congRight.png,left,180,,,,,0,0,0,0,1,30,78,14,274.0289500998333,,,,,,,,,,274.0136751998216,274.0289500998333,274.57941520027816,274.5650936998427,0.55,274.5651602996513,274.57941520027816,274.57941520027816,274.6796925002709,275.0796068003401,275.0796068003401,275.0796068003401,275.53298730030656,left,1,0.44901200011372566,None,,,,,,,,,,,,,,,,,,,,,,,,,,,,,,,,,,Quartz,1,22,Female,White,N/A,2024-12-06_10h58.59.245,dissANT,2023.2.3,60.39945780196241,2024-12-06 11h00.18.877861 -0600,
centre.png,congLeft.png,right,180,,,,,0,0,0,0,1,31,79,6,275.54643389955163,,,,,,,,,,275.53475989960134,275.54643389955163,275.9462419003248,275.93032629974186,0.4,275.93037229962647,275.9462419003248,275.9462419003248,276.0459284996614,276.4295880999416,276.4295880999416,276.4463414000347,276.9630127996206,right,1,0.5203023999929428,None,,,,,,,,,,,,,,,,,,,,,,,,,,,,,,,,,,Quartz,1,22,Female,White,N/A,2024-12-06_10h58.59.245,dissANT,2023.2.3,60.39945780196241,2024-12-06 11h00.18.877861 -0600,
blank.png,neutralLeft.png,left,0,,,,,0,0,0,0,1,32,80,35,276.97913729958236,,,,,,,,,,276.9633098002523,276.97913729958236,277.37934730015695,277.364809400402,0.4,277.36486020032316,277.37934730015695,277.37934730015695,277.47929229959846,277.87890029978007,277.87890029978007,277.87890029978007,278.4660320999101,left,1,0.5700793005526066,None,,,,,,,,,,,,,,,,,,,,,,,,,,,,,,,,,,Quartz,1,22,Female,White,N/A,2024-12-06_10h58.59.245,dissANT,2023.2.3,60.39945780196241,2024-12-06 11h00.18.877861 -0600,
upper.png,congLeft.png,left,0,,,,,0,0,0,0,1,33,81,0,278.479566199705,,,,,,,,,,278.4678867002949,278.479566199705,278.9294392997399,278.9147720001638,0.45,278.9148356001824,278.9294392997399,278.9294392997399,279.02953360043466,279.42904079984874,279.42904079984874,279.42904079984874,279.88139019999653,left,1,0.44063400011509657,None,,,,,,,,,,,,,,,,,,,,,,,,,,,,,,,,,,Quartz,1,22,Female,White,N/A,2024-12-06_10h58.59.245,dissANT,2023.2.3,60.39945780196241,2024-12-06 11h00.18.877861 -0600,
both.png,incongRight.png,left,180,,,,,0,0,0,0,1,34,82,29,279.89605550002307,,,,,,,,,,279.8828485002741,279.89605550002307,280.34593859966844,280.331370100379,0.45,280.33144260011613,280.34593859966844,280.34593859966844,280.44622240029275,280.8463620003313,280.8463620003313,280.8463620003313,281.4652057001367,left,1,0.6015516994521022,None,,,,,,,,,,,,,,,,,,,,,,,,,,,,,,,,,,Quartz,1,22,Female,White,N/A,2024-12-06_10h58.59.245,dissANT,2023.2.3,60.39945780196241,2024-12-06 11h00.18.877861 -0600,
both.png,incongLeft.png,left,0,,,,,0,0,0,0,1,35,83,17,281.479015099816,,,,,,,,,,281.4666964998469,281.479015099816,282.02933689951897,282.0149664003402,0.55,282.0150170996785,282.02933689951897,282.02933689951897,282.1291511999443,282.5290340995416,282.5290340995416,282.5290340995416,283.0655947998166,left,1,0.5271479999646544,None,,,,,,,,,,,,,,,,,,,,,,,,,,,,,,,,,,Quartz,1,22,Female,White,N/A,2024-12-06_10h58.59.245,dissANT,2023.2.3,60.39945780196241,2024-12-06 11h00.18.877861 -0600,
both.png,neutralRight.png,left,180,,,,,0,0,0,0,1,36,84,45,283.07947279978544,,,,,,,,,,283.0673369001597,283.07947279978544,283.6294182995334,283.61525410041213,0.55,283.6153384996578,283.6294182995334,283.6294182995334,283.7293798001483,284.1296571996063,284.1296571996063,284.1296571996063,284.6651710001752,left,1,0.530803800560534,None,,,,,,,,,,,,,,,,,,,,,,,,,,,,,,,,,,Quartz,1,22,Female,White,N/A,2024-12-06_10h58.59.245,dissANT,2023.2.3,60.39945780196241,2024-12-06 11h00.18.877861 -0600,
centre.png,neutralLeft.png,right,180,,,,,0,0,0,0,1,37,85,38,284.67922599986196,,,,,,,,,,284.6667635003105,284.67922599986196,285.2293748995289,285.2151309000328,0.55,285.2152031995356,285.2293748995289,285.2293748995289,285.32896429952234,285.72952780034393,285.72952780034393,285.72952780034393,286.34729589987546,right,1,0.6121761994436383,None,,,,,,,,,,,,,,,,,,,,,,,,,,,,,,,,,,Quartz,1,22,Female,White,N/A,2024-12-06_10h58.59.245,dissANT,2023.2.3,60.39945780196241,2024-12-06 11h00.18.877861 -0600,
upper.png,neutralLeft.png,left,0,,,,,0,0,0,0,1,38,86,32,286.3622620003298,,,,,,,,,,286.3485148996115,286.3622620003298,286.8125291997567,286.7977839997038,0.45,286.79784629959613,286.8125291997567,286.8125291997567,286.9123994000256,287.3127113003284,287.3127113003284,287.3127113003284,287.74840479996055,left,1,0.4304908001795411,None,,,,,,,,,,,,,,,,,,,,,,,,,,,,,,,,,,Quartz,1,22,Female,White,N/A,2024-12-06_10h58.59.245,dissANT,2023.2.3,60.39945780196241,2024-12-06 11h00.18.877861 -0600,
upper.png,congRight.png,right,0,,,,,0,0,0,0,1,39,87,8,287.762689399533,,,,,,,,,,287.7499415995553,287.762689399533,288.2627467000857,288.2481420999393,0.5,288.2482145000249,288.2627467000857,288.2627467000857,288.36269760038704,288.76273989956826,288.76273989956826,288.76273989956826,289.36416780017316,right,1,0.5953523991629481,None,,,,,,,,,,,,,,,,,,,,,,,,,,,,,,,,,,Quartz,1,22,Female,White,N/A,2024-12-06_10h58.59.245,dissANT,2023.2.3,60.39945780196241,2024-12-06 11h00.18.877861 -0600,
lower.png,neutralLeft.png,right,180,,,,,0,0,0,0,1,40,88,36,289.3791297003627,,,,,,,,,,289.36532600037754,289.3791297003627,289.87916439957917,289.8652117000893,0.5,289.86529389955103,289.87916439957917,289.87916439957917,289.9790562996641,290.3792150998488,290.3792150998488,290.3792150998488,290.83187690004706,right,1,0.44204789958894253,None,,,,,,,,,,,,,,,,,,,,,,,,,,,,,,,,,,Quartz,1,22,Female,White,N/A,2024-12-06_10h58.59.245,dissANT,2023.2.3,60.39945780196241,2024-12-06 11h00.18.877861 -0600,
both.png,congLeft.png,left,0,,,,,0,0,0,0,1,41,89,1,290.8460563002154,,,,,,,,,,290.832776799798,290.8460563002154,291.3957511000335,291.3807878000662,0.55,291.3808498000726,291.3957511000335,291.3957511000335,291.4959028996527,291.89526479970664,291.89526479970664,291.89526479970664,292.2980759004131,left,1,0.3971053995192051,None,,,,,,,,,,,,,,,,,,,,,,,,,,,,,,,,,,Quartz,1,22,Female,White,N/A,2024-12-06_10h58.59.245,dissANT,2023.2.3,60.39945780196241,2024-12-06 11h00.18.877861 -0600,
centre.png,congRight.png,right,0,,,,,0,0,0,0,1,42,90,10,292.3127979999408,,,,,,,,,,292.2994753997773,292.3127979999408,292.7628419995308,292.7469073999673,0.45,292.74695829954,292.7628419995308,292.7628419995308,292.86272369977087,293.26230899989605,293.26230899989605,293.26230899989605,293.74777750018984,right,1,0.4687701007351279,None,,,,,,,,,,,,,,,,,,,,,,,,,,,,,,,,,,Quartz,1,22,Female,White,N/A,2024-12-06_10h58.59.245,dissANT,2023.2.3,60.39945780196241,2024-12-06 11h00.18.877861 -0600,
lower.png,incongRight.png,left,180,,,,,0,0,0,0,1,43,91,28,293.76243069954216,,,,,,,,,,293.7493348000571,293.76243069954216,294.2119600996375,294.19529009982944,0.45,294.19530390016735,294.2119600996375,294.2119600996375,294.3119978001341,294.6954036001116,294.6954036001116,294.7120527997613,295.1457660002634,right,0,0.43555579986423254,None,,,,,,,,,,,,,,,,,,,,,,,,,,,,,,,,,,Quartz,1,22,Female,White,N/A,2024-12-06_10h58.59.245,dissANT,2023.2.3,60.39945780196241,2024-12-06 11h00.18.877861 -0600,
both.png,incongLeft.png,right,180,,,,,0,0,0,0,1,44,92,21,295.16184370033443,,,,,,,,,,295.1462278999388,295.16184370033443,295.7125311996788,295.69721740018576,0.55,295.6972765997052,295.7125311996788,295.7125311996788,295.81274139974266,296.21177050005645,296.21177050005645,296.21177050005645,296.8292675996199,right,1,0.6016311002895236,None,,,,,,,,,,,,,,,,,,,,,,,,,,,,,,,,,,Quartz,1,22,Female,White,N/A,2024-12-06_10h58.59.245,dissANT,2023.2.3,60.39945780196241,2024-12-06 11h00.18.877861 -0600,
centre.png,incongRight.png,left,180,,,,,0,0,0,0,1,45,93,30,296.8453187001869,,,,,,,,,,296.8295598998666,296.8453187001869,297.29592160042375,297.2803603997454,0.45,297.2804100001231,297.29592160042375,297.29592160042375,297.3955304995179,297.7958153998479,297.7958153998479,297.7958153998479,298.3791198004037,left,1,0.5695149004459381,None,,,,,,,,,,,,,,,,,,,,,,,,,,,,,,,,,,Quartz,1,22,Female,White,N/A,2024-12-06_10h58.59.245,dissANT,2023.2.3,60.39945780196241,2024-12-06 11h00.18.877861 -0600,
centre.png,neutralRight.png,right,0,,,,,0,0,0,0,1,46,94,42,298.39519929978997,,,,,,,,,,298.3794034002349,298.39519929978997,298.945200400427,298.92867069970816,0.55,298.92868610005826,298.945200400427,298.945200400427,299.0450719995424,299.4285158002749,299.4285158002749,299.4449877003208,300.014539799653,right,1,0.5697964997962117,None,,,,,,,,,,,,,,,,,,,,,,,,,,,,,,,,,,Quartz,1,22,Female,White,N/A,2024-12-06_10h58.59.245,dissANT,2023.2.3,60.39945780196241,2024-12-06 11h00.18.877861 -0600,
blank.png,neutralRight.png,right,0,,,,,0,0,0,0,1,47,95,43,300.02865319978446,,,,,,,,,,300.0154475001618,300.02865319978446,300.57856949977577,300.5620291996747,0.55,300.56204389967024,300.57856949977577,300.57856949977577,300.67834229953587,301.06173549965024,301.06173549965024,301.078264599666,301.5126155996695,right,1,0.4459096994251013,None,,,,,,,,,,,,,,,,,,,,,,,,,,,,,,,,,,Quartz,1,22,Female,White,N/A,2024-12-06_10h58.59.245,dissANT,2023.2.3,60.39945780196241,2024-12-06 11h00.18.877861 -0600,
,,,,,,,,0,0,0,0,,,,,,,,,,,,,,,,,,,,,,,,,,,,,,,,,,,,,,,,,,,301.5130696995184,301.52839780040085,301.52839780040085,312.48112700041384,,,,,,,,,,,,,,,,,,,Quartz,1,22,Female,White,N/A,2024-12-06_10h58.59.245,dissANT,2023.2.3,60.39945780196241,2024-12-06 11h00.18.877861 -0600,
blank.png,congRight.png,right,0,,,,,1,0,1,0,0,0,0,11,312.5034307995811,,,,,,,,,,312.5002862000838,312.5034307995811,313.0614211997017,313.0479146996513,0.55,313.0479878000915,313.0614211997017,313.0614211997017,313.16204649955034,313.562370499596,313.562370499596,313.562370499596,314.06434729974717,right,1,0.49673209991306067,None,,,,,,,,,,,,,,,,,,,,,,,,,,,,,,,,,,Quartz,1,22,Female,White,N/A,2024-12-06_10h58.59.245,dissANT,2023.2.3,60.39945780196241,2024-12-06 11h00.18.877861 -0600,
centre.png,incongLeft.png,right,180,,,,,1,0,1,0,0,1,1,22,314.0785779999569,,,,,,,,,,314.0664894003421,314.0785779999569,314.57826310023665,314.5637966003269,0.5,314.5638442998752,314.57826310023665,314.57826310023665,314.67836389970034,315.0783983003348,315.0783983003348,315.0783983003348,315.71492670010775,right,1,0.6252132998779416,None,,,,,,,,,,,,,,,,,,,,,,,,,,,,,,,,,,Quartz,1,22,Female,White,N/A,2024-12-06_10h58.59.245,dissANT,2023.2.3,60.39945780196241,2024-12-06 11h00.18.877861 -0600,
upper.png,neutralLeft.png,left,0,,,,,1,0,1,0,0,2,2,32,315.7286839000881,,,,,,,,,,315.7165879998356,315.7286839000881,316.22862190008163,316.2140488997102,0.5,316.2141153002158,316.22862190008163,316.22862190008163,316.32851599995047,316.728601699695,316.728601699695,316.728601699695,317.2457395000383,left,1,0.5076799001544714,None,,,,,,,,,,,,,,,,,,,,,,,,,,,,,,,,,,Quartz,1,22,Female,White,N/A,2024-12-06_10h58.59.245,dissANT,2023.2.3,60.39945780196241,2024-12-06 11h00.18.877861 -0600,
lower.png,incongRight.png,left,180,,,,,1,0,1,0,0,3,3,28,317.2616673996672,,,,,,,,,,317.2462576003745,317.2616673996672,317.81198829971254,317.79621080029756,0.55,317.7962520001456,317.81198829971254,317.81198829971254,317.9119873996824,318.3120202999562,318.3120202999562,318.3120202999562,318.93190910015255,left,1,0.6169271003454924,None,,,,,,,,,,,,,,,,,,,,,,,,,,,,,,,,,,Quartz,1,22,Female,White,N/A,2024-12-06_10h58.59.245,dissANT,2023.2.3,60.39945780196241,2024-12-06 11h00.18.877861 -0600,
blank.png,neutralRight.png,left,180,,,,,1,0,1,0,0,4,4,47,318.9451783997938,,,,,,,,,,318.93332649953663,318.9451783997938,319.39492760039866,319.38057789951563,0.45,319.3806504998356,319.39492760039866,319.39492760039866,319.49523609969765,319.8955199997872,319.8955199997872,319.8955199997872,320.36408369988203,left,1,0.4566727001219988,None,,,,,,,,,,,,,,,,,,,,,,,,,,,,,,,,,,Quartz,1,22,Female,White,N/A,2024-12-06_10h58.59.245,dissANT,2023.2.3,60.39945780196241,2024-12-06 11h00.18.877861 -0600,
centre.png,neutralLeft.png,left,0,,,,,1,0,1,0,0,5,5,34,320.3785062003881,,,,,,,,,,320.36556799989194,320.3785062003881,320.7786646001041,320.76341889984906,0.4,320.7635236000642,320.7786646001041,320.7786646001041,320.87793039996177,321.27857009973377,321.27857009973377,321.27857009973377,321.7976141003892,left,1,0.5091346995905042,None,,,,,,,,,,,,,,,,,,,,,,,,,,,,,,,,,,Quartz,1,22,Female,White,N/A,2024-12-06_10h58.59.245,dissANT,2023.2.3,60.39945780196241,2024-12-06 11h00.18.877861 -0600,
blank.png,neutralLeft.png,left,0,,,,,1,0,1,0,0,6,6,35,321.81178930029273,,,,,,,,,,321.79909459967166,321.81178930029273,322.2616659998894,322.2467798003927,0.45,322.2468405002728,322.2616659998894,322.2616659998894,322.3617366999388,322.7616983000189,322.7616983000189,322.7616983000189,323.180975000374,left,1,0.4056908003985882,None,,,,,,,,,,,,,,,,,,,,,,,,,,,,,,,,,,Quartz,1,22,Female,White,N/A,2024-12-06_10h58.59.245,dissANT,2023.2.3,60.39945780196241,2024-12-06 11h00.18.877861 -0600,
both.png,neutralLeft.png,left,0,,,,,1,0,1,0,0,7,7,33,323.1951930001378,,,,,,,,,,323.1824369998649,323.1951930001378,323.6948907999322,323.67962589953095,0.5,323.67971740011126,323.6948907999322,323.6948907999322,323.7952071996406,324.1952531002462,324.1952531002462,324.1952531002462,324.6305807996541,left,1,0.418716199696064,None,,,,,,,,,,,,,,,,,,,,,,,,,,,,,,,,,,Quartz,1,22,Female,White,N/A,2024-12-06_10h58.59.245,dissANT,2023.2.3,60.39945780196241,2024-12-06 11h00.18.877861 -0600,
lower.png,congLeft.png,right,180,,,,,1,0,1,0,0,8,8,4,324.645288400352,,,,,,,,,,324.6315692001954,324.645288400352,325.1450022999197,325.1306066997349,0.5,325.1307009998709,325.1450022999197,325.1450022999197,325.24533389974385,325.6453010002151,325.6453010002151,325.6453010002151,326.1631979001686,right,1,0.5113012008368969,None,,,,,,,,,,,,,,,,,,,,,,,,,,,,,,,,,,Quartz,1,22,Female,White,N/A,2024-12-06_10h58.59.245,dissANT,2023.2.3,60.39945780196241,2024-12-06 11h00.18.877861 -0600,
centre.png,neutralRight.png,left,180,,,,,1,0,1,0,0,9,9,46,326.1787574002519,,,,,,,,,,326.16442910023034,326.1787574002519,326.6282693995163,326.6132784001529,0.45,326.61333839967847,326.6282693995163,326.6282693995163,326.72839379962534,327.12782500032336,327.12782500032336,327.12782500032336,327.56449769996107,left,1,0.4283194998279214,None,,,,,,,,,,,,,,,,,,,,,,,,,,,,,,,,,,Quartz,1,22,Female,White,N/A,2024-12-06_10h58.59.245,dissANT,2023.2.3,60.39945780196241,2024-12-06 11h00.18.877861 -0600,
centre.png,congLeft.png,left,0,,,,,1,0,1,0,0,10,10,2,327.57783559989184,,,,,,,,,,327.5662064999342,327.57783559989184,328.0779560999945,328.06416659988463,0.5,328.0642392002046,328.0779560999945,328.0779560999945,328.17827869951725,328.5784796997905,328.5784796997905,328.5784796997905,329.0977072995156,left,1,0.5024271998554468,None,,,,,,,,,,,,,,,,,,,,,,,,,,,,,,,,,,Quartz,1,22,Female,White,N/A,2024-12-06_10h58.59.245,dissANT,2023.2.3,60.39945780196241,2024-12-06 11h00.18.877861 -0600,
centre.png,congLeft.png,right,180,,,,,1,0,1,0,0,11,11,6,329.11181970033795,,,,,,,,,,329.0992967998609,329.11181970033795,329.5114412000403,329.4968646001071,0.4,329.4969306997955,329.5114412000403,329.5114412000403,329.61190969962627,330.0115181999281,330.0115181999281,330.0115181999281,330.5979177001864,right,1,0.5737028997391462,None,,,,,,,,,,,,,,,,,,,,,,,,,,,,,,,,,,Quartz,1,22,Female,White,N/A,2024-12-06_10h58.59.245,dissANT,2023.2.3,60.39945780196241,2024-12-06 11h00.18.877861 -0600,
both.png,congLeft.png,left,0,,,,,1,0,1,0,0,12,12,1,330.61167399957776,,,,,,,,,,330.5996118998155,330.61167399957776,331.0612380001694,331.0447851996869,0.45,331.0447998996824,331.0612380001694,331.0612380001694,331.1610647002235,331.5448818001896,331.5448818001896,331.5615915004164,332.0642374996096,left,1,0.5117000993341208,None,,,,,,,,,,,,,,,,,,,,,,,,,,,,,,,,,,Quartz,1,22,Female,White,N/A,2024-12-06_10h58.59.245,dissANT,2023.2.3,60.39945780196241,2024-12-06 11h00.18.877861 -0600,
centre.png,neutralRight.png,right,0,,,,,1,0,1,0,0,13,13,42,332.0783267999068,,,,,,,,,,332.0657268995419,332.0783267999068,332.5782000999898,332.56407689955086,0.5,332.56414919998497,332.5782000999898,332.5782000999898,332.6782858995721,333.078228100203,333.078228100203,333.078228100203,333.5648964000866,right,1,0.47075110021978617,None,,,,,,,,,,,,,,,,,,,,,,,,,,,,,,,,,,Quartz,1,22,Female,White,N/A,2024-12-06_10h58.59.245,dissANT,2023.2.3,60.39945780196241,2024-12-06 11h00.18.877861 -0600,
blank.png,incongRight.png,left,180,,,,,1,0,1,0,0,14,14,31,333.57832039985806,,,,,,,,,,333.56681559979916,333.57832039985806,333.9780713999644,333.96353560034186,0.4,333.96361969970167,333.9780713999644,333.9780713999644,334.0782057000324,334.47824960015714,334.47824960015714,334.47824960015714,335.0476222001016,left,1,0.5635722000151873,None,,,,,,,,,,,,,,,,,,,,,,,,,,,,,,,,,,Quartz,1,22,Female,White,N/A,2024-12-06_10h58.59.245,dissANT,2023.2.3,60.39945780196241,2024-12-06 11h00.18.877861 -0600,
both.png,congLeft.png,right,180,,,,,1,0,1,0,0,15,15,5,335.0615903995931,,,,,,,,,,335.04925880022347,335.0615903995931,335.5614855000749,335.54685229994357,0.5,335.54691859986633,335.5614855000749,335.5614855000749,335.6614642003551,336.06157420016825,336.06157420016825,336.06157420016825,336.6806394001469,right,1,0.6139968000352383,None,,,,,,,,,,,,,,,,,,,,,,,,,,,,,,,,,,Quartz,1,22,Female,White,N/A,2024-12-06_10h58.59.245,dissANT,2023.2.3,60.39945780196241,2024-12-06 11h00.18.877861 -0600,
both.png,incongLeft.png,right,180,,,,,1,0,1,0,0,16,16,21,336.6949843997136,,,,,,,,,,336.68200470041484,336.6949843997136,337.2447293000296,337.22961109969765,0.55,337.2296601999551,337.2447293000296,337.2447293000296,337.3441027002409,337.7446678997949,337.7446678997949,337.7446678997949,338.34728080034256,right,1,0.5874433005228639,None,,,,,,,,,,,,,,,,,,,,,,,,,,,,,,,,,,Quartz,1,22,Female,White,N/A,2024-12-06_10h58.59.245,dissANT,2023.2.3,60.39945780196241,2024-12-06 11h00.18.877861 -0600,
both.png,neutralRight.png,left,180,,,,,1,0,1,0,0,17,17,45,338.3614443996921,,,,,,,,,,338.3488258998841,338.3614443996921,338.86130699981004,338.8468977995217,0.5,338.84697419963777,338.86130699981004,338.86130699981004,338.96143169980496,339.3617778001353,339.3617778001353,339.3617778001353,339.7971812998876,left,1,0.41874529980123043,None,,,,,,,,,,,,,,,,,,,,,,,,,,,,,,,,,,Quartz,1,22,Female,White,N/A,2024-12-06_10h58.59.245,dissANT,2023.2.3,60.39945780196241,2024-12-06 11h00.18.877861 -0600,
lower.png,incongLeft.png,right,180,,,,,1,0,1,0,0,18,18,20,339.81095749977976,,,,,,,,,,339.7987147998065,339.81095749977976,340.31150950025767,340.2962594004348,0.5,340.296319199726,340.31150950025767,340.31150950025767,340.41134409978986,340.81150310020894,340.81150310020894,340.81150310020894,341.3973139002919,right,1,0.5715783992782235,None,,,,,,,,,,,,,,,,,,,,,,,,,,,,,,,,,,Quartz,1,22,Female,White,N/A,2024-12-06_10h58.59.245,dissANT,2023.2.3,60.39945780196241,2024-12-06 11h00.18.877861 -0600,
upper.png,incongRight.png,right,0,,,,,1,0,1,0,0,19,19,24,341.41141299996525,,,,,,,,,,341.3987943995744,341.41141299996525,341.86096430011094,341.84643050003797,0.45,341.8465042999014,341.86096430011094,341.86096430011094,341.9611964998767,342.36174909956753,342.36174909956753,342.36174909956753,343.0637432998046,right,1,0.6938421996310353,None,,,,,,,,,,,,,,,,,,,,,,,,,,,,,,,,,,Quartz,1,22,Female,White,N/A,2024-12-06_10h58.59.245,dissANT,2023.2.3,60.39945780196241,2024-12-06 11h00.18.877861 -0600,
blank.png,congLeft.png,right,180,,,,,1,0,1,0,0,20,20,7,343.0778876999393,,,,,,,,,,343.06518299970776,343.0778876999393,343.62781499978155,343.61384109966457,0.55,343.6139134000987,343.62781499978155,343.62781499978155,343.7281822003424,344.1279079997912,344.1279079997912,344.1279079997912,344.66284800041467,right,1,0.5323227997869253,None,,,,,,,,,,,,,,,,,,,,,,,,,,,,,,,,,,Quartz,1,22,Female,White,N/A,2024-12-06_10h58.59.245,dissANT,2023.2.3,60.39945780196241,2024-12-06 11h00.18.877861 -0600,
blank.png,incongLeft.png,left,0,,,,,1,0,1,0,0,21,21,19,344.67738019954413,,,,,,,,,,344.6641618004069,344.67738019954413,345.2278273999691,345.2133344998583,0.55,345.2134074997157,345.2278273999691,345.2278273999691,345.3281479999423,345.7281037000939,345.7281037000939,345.7281037000939,346.11216080002487,right,0,0.38034170027822256,None,,,,,,,,,,,,,,,,,,,,,,,,,,,,,,,,,,Quartz,1,22,Female,White,N/A,2024-12-06_10h58.59.245,dissANT,2023.2.3,60.39945780196241,2024-12-06 11h00.18.877861 -0600,
lower.png,congRight.png,left,180,,,,,1,0,1,0,0,22,22,12,346.12785299960524,,,,,,,,,,346.11327010020614,346.12785299960524,346.5278559997678,346.51294950023293,0.4,346.513012399897,346.5278559997678,346.5278559997678,346.62781659979373,347.0280515998602,347.0280515998602,347.0280515998602,347.548263899982,left,1,0.5081460997462273,None,,,,,,,,,,,,,,,,,,,,,,,,,,,,,,,,,,Quartz,1,22,Female,White,N/A,2024-12-06_10h58.59.245,dissANT,2023.2.3,60.39945780196241,2024-12-06 11h00.18.877861 -0600,
blank.png,congRight.png,left,180,,,,,1,0,1,0,0,23,23,15,347.56129349954426,,,,,,,,,,347.5495718996972,347.56129349954426,348.111040700227,348.0970574999228,0.55,348.09714000020176,348.111040700227,348.111040700227,348.2113311998546,348.61129359994084,348.61129359994084,348.61129359994084,349.1122345998883,left,1,0.4894898999482393,None,,,,,,,,,,,,,,,,,,,,,,,,,,,,,,,,,,Quartz,1,22,Female,White,N/A,2024-12-06_10h58.59.245,dissANT,2023.2.3,60.39945780196241,2024-12-06 11h00.18.877861 -0600,
centre.png,incongLeft.png,left,0,,,,,1,0,1,0,0,24,24,18,349.1278389003128,,,,,,,,,,349.11337750032544,349.1278389003128,349.67755240015686,349.6629726998508,0.55,349.6630320996046,349.67755240015686,349.67755240015686,349.77783029992133,350.1772421998903,350.1772421998903,350.1772421998903,350.7470840997994,left,1,0.5566880004480481,None,,,,,,,,,,,,,,,,,,,,,,,,,,,,,,,,,,Quartz,1,22,Female,White,N/A,2024-12-06_10h58.59.245,dissANT,2023.2.3,60.39945780196241,2024-12-06 11h00.18.877861 -0600,
both.png,neutralLeft.png,right,180,,,,,1,0,1,0,0,25,25,37,350.7611041003838,,,,,,,,,,350.748626800254,350.7611041003838,351.2112932000309,351.19547730032355,0.45,351.19552629999816,351.2112932000309,351.2112932000309,351.3112108996138,351.6944800997153,351.6944800997153,351.71113570034504,352.2634746003896,right,1,0.5520555004477501,None,,,,,,,,,,,,,,,,,,,,,,,,,,,,,,,,,,Quartz,1,22,Female,White,N/A,2024-12-06_10h58.59.245,dissANT,2023.2.3,60.39945780196241,2024-12-06 11h00.18.877861 -0600,
upper.png,congLeft.png,left,0,,,,,1,0,1,0,0,26,26,0,352.2777356998995,,,,,,,,,,352.2649947004393,352.2777356998995,352.72772230021656,352.7127678003162,0.45,352.71282770019025,352.72772230021656,352.72772230021656,352.82775619998574,353.2278934996575,353.2278934996575,353.2278934996575,353.6967722000554,left,1,0.4533281996846199,None,,,,,,,,,,,,,,,,,,,,,,,,,,,,,,,,,,Quartz,1,22,Female,White,N/A,2024-12-06_10h58.59.245,dissANT,2023.2.3,60.39945780196241,2024-12-06 11h00.18.877861 -0600,
blank.png,incongLeft.png,right,180,,,,,1,0,1,0,0,27,27,23,353.71128110028803,,,,,,,,,,353.69809150043875,353.71128110028803,354.16104440018535,354.14457030035555,0.45,354.1446011001244,354.16104440018535,354.16104440018535,354.26101529970765,354.6447681998834,354.6447681998834,354.661223099567,355.478584099561,right,1,0.8229539003223181,None,,,,,,,,,,,,,,,,,,,,,,,,,,,,,,,,,,Quartz,1,22,Female,White,N/A,2024-12-06_10h58.59.245,dissANT,2023.2.3,60.39945780196241,2024-12-06 11h00.18.877861 -0600,
blank.png,neutralLeft.png,right,180,,,,,1,0,1,0,0,28,28,39,355.4946208000183,,,,,,,,,,355.4797023003921,355.4946208000183,355.89457620028406,355.879430799745,0.4,355.87949690036476,355.89457620028406,355.89457620028406,355.9944064002484,356.3937572995201,356.3937572995201,356.3937572995201,356.8638295996934,right,1,0.45720839966088533,None,,,,,,,,,,,,,,,,,,,,,,,,,,,,,,,,,,Quartz,1,22,Female,White,N/A,2024-12-06_10h58.59.245,dissANT,2023.2.3,60.39945780196241,2024-12-06 11h00.18.877861 -0600,
lower.png,neutralLeft.png,right,180,,,,,1,0,1,0,0,29,29,36,356.87760050036013,,,,,,,,,,356.86556710023433,356.87760050036013,357.3276298996061,357.3112292997539,0.45,357.3112597996369,357.3276298996061,357.3276298996061,357.42776389978826,357.8112572999671,357.8112572999671,357.82755600009114,358.28023019991815,right,1,0.46584489941596985,None,,,,,,,,,,,,,,,,,,,,,,,,,,,,,,,,,,Quartz,1,22,Female,White,N/A,2024-12-06_10h58.59.245,dissANT,2023.2.3,60.39945780196241,2024-12-06 11h00.18.877861 -0600,
both.png,incongRight.png,right,0,,,,,1,0,1,0,0,30,30,25,358.29418450035155,,,,,,,,,,358.28162410017103,358.29418450035155,358.74431349989027,358.72961909975857,0.45,358.7296960996464,358.74431349989027,358.74431349989027,358.84429259970784,359.2439911002293,359.2439911002293,359.2439911002293,359.84695869963616,right,1,0.5956684006378055,None,,,,,,,,,,,,,,,,,,,,,,,,,,,,,,,,,,Quartz,1,22,Female,White,N/A,2024-12-06_10h58.59.245,dissANT,2023.2.3,60.39945780196241,2024-12-06 11h00.18.877861 -0600,
blank.png,incongRight.png,right,0,,,,,1,0,1,0,0,31,31,27,359.86114909965545,,,,,,,,,,359.84847849979997,359.86114909965545,360.41093000024557,360.39596890006214,0.55,360.3960306998342,360.41093000024557,360.41093000024557,360.5108780004084,360.91105659957975,360.91105659957975,360.91105659957975,361.43100390024483,right,1,0.5040670996531844,None,,,,,,,,,,,,,,,,,,,,,,,,,,,,,,,,,,Quartz,1,22,Female,White,N/A,2024-12-06_10h58.59.245,dissANT,2023.2.3,60.39945780196241,2024-12-06 11h00.18.877861 -0600,
centre.png,neutralLeft.png,right,180,,,,,1,0,1,0,0,32,32,38,361.4442557003349,,,,,,,,,,361.4324283003807,361.4442557003349,361.9943615999073,361.9792665001005,0.55,361.97932479996234,361.9943615999073,361.9943615999073,362.09425379987806,362.4940176997334,362.4940176997334,362.4940176997334,363.030588099733,right,1,0.5343388002365828,None,,,,,,,,,,,,,,,,,,,,,,,,,,,,,,,,,,Quartz,1,22,Female,White,N/A,2024-12-06_10h58.59.245,dissANT,2023.2.3,60.39945780196241,2024-12-06 11h00.18.877861 -0600,
both.png,incongLeft.png,left,0,,,,,1,0,1,0,0,33,33,17,363.04402120038867,,,,,,,,,,363.03192839957774,363.04402120038867,363.44378000032157,363.4273111000657,0.4,363.4273215001449,363.44378000032157,363.44378000032157,363.5441784998402,363.9275057995692,363.9275057995692,363.94416270032525,364.5464730998501,left,1,0.6063484996557236,None,,,,,,,,,,,,,,,,,,,,,,,,,,,,,,,,,,Quartz,1,22,Female,White,N/A,2024-12-06_10h58.59.245,dissANT,2023.2.3,60.39945780196241,2024-12-06 11h00.18.877861 -0600,
both.png,congRight.png,left,180,,,,,1,0,1,0,0,34,34,13,364.560851899907,,,,,,,,,,364.54783929977566,364.560851899907,365.06069289986044,365.04589740000665,0.5,365.04595679976046,365.06069289986044,365.06069289986044,365.16088940016925,365.56106270011514,365.56106270011514,365.56106270011514,366.0471970997751,left,1,0.48240350000560284,None,,,,,,,,,,,,,,,,,,,,,,,,,,,,,,,,,,Quartz,1,22,Female,White,N/A,2024-12-06_10h58.59.245,dissANT,2023.2.3,60.39945780196241,2024-12-06 11h00.18.877861 -0600,
both.png,congRight.png,right,0,,,,,1,0,1,0,0,35,35,9,366.06065400037915,,,,,,,,,,366.04884549975395,366.06065400037915,366.5607546996325,366.54648320004344,0.5,366.5465487996116,366.5607546996325,366.5607546996325,366.6609594002366,367.0604132004082,367.0604132004082,367.0604132004082,367.6138345003128,right,1,0.549795700237155,None,,,,,,,,,,,,,,,,,,,,,,,,,,,,,,,,,,Quartz,1,22,Female,White,N/A,2024-12-06_10h58.59.245,dissANT,2023.2.3,60.39945780196241,2024-12-06 11h00.18.877861 -0600,
upper.png,incongLeft.png,left,0,,,,,1,0,1,0,0,36,36,16,367.6272694999352,,,,,,,,,,367.615257400088,367.6272694999352,368.1774364002049,368.16229810006917,0.55,368.16236030030996,368.1774364002049,368.1774364002049,368.276925499551,368.67733089998364,368.67733089998364,368.67733089998364,369.2471944997087,left,1,0.5550637003034353,None,,,,,,,,,,,,,,,,,,,,,,,,,,,,,,,,,,Quartz,1,22,Female,White,N/A,2024-12-06_10h58.59.245,dissANT,2023.2.3,60.39945780196241,2024-12-06 11h00.18.877861 -0600,
blank.png,neutralRight.png,right,0,,,,,1,0,1,0,0,37,37,43,369.260413300246,,,,,,,,,,369.2489465000108,369.260413300246,369.7107101995498,369.69568719994277,0.45,369.6957529997453,369.7107101995498,369.7107101995498,369.81065700016916,370.2104064999148,370.2104064999148,370.2104064999148,370.6970111001283,right,1,0.48273859918117523,None,,,,,,,,,,,,,,,,,,,,,,,,,,,,,,,,,,Quartz,1,22,Female,White,N/A,2024-12-06_10h58.59.245,dissANT,2023.2.3,60.39945780196241,2024-12-06 11h00.18.877861 -0600,
blank.png,congLeft.png,left,0,,,,,1,0,1,0,0,38,38,3,370.710849000141,,,,,,,,,,370.69858120009303,370.710849000141,371.1104538002983,371.0961376000196,0.4,371.0962108997628,371.1104538002983,371.1104538002983,371.2106897002086,371.61103320028633,371.61103320028633,371.61103320028633,372.11431990005076,left,1,0.48716249968856573,None,,,,,,,,,,,,,,,,,,,,,,,,,,,,,,,,,,Quartz,1,22,Female,White,N/A,2024-12-06_10h58.59.245,dissANT,2023.2.3,60.39945780196241,2024-12-06 11h00.18.877861 -0600,
both.png,neutralRight.png,right,0,,,,,1,0,1,0,0,39,39,41,372.12702179979533,,,,,,,,,,372.11639830004424,372.12702179979533,372.57699820026755,372.5629863999784,0.45,372.5630595004186,372.57699820026755,372.57699820026755,372.6772224996239,373.07732500042766,373.07732500042766,373.07732500042766,373.56399619951844,right,1,0.47962290048599243,None,,,,,,,,,,,,,,,,,,,,,,,,,,,,,,,,,,Quartz,1,22,Female,White,N/A,2024-12-06_10h58.59.245,dissANT,2023.2.3,60.39945780196241,2024-12-06 11h00.18.877861 -0600,
centre.png,congRight.png,right,0,,,,,1,0,1,0,0,40,40,10,373.5770348003134,,,,,,,,,,373.5659010997042,373.5770348003134,374.0270165996626,374.01273989956826,0.45,374.01280780043453,374.0270165996626,374.0270165996626,374.12715809978545,374.5273494999856,374.5273494999856,374.5273494999856,374.9628558997065,right,1,0.42131599970161915,None,,,,,,,,,,,,,,,,,,,,,,,,,,,,,,,,,,Quartz,1,22,Female,White,N/A,2024-12-06_10h58.59.245,dissANT,2023.2.3,60.39945780196241,2024-12-06 11h00.18.877861 -0600,
centre.png,incongRight.png,left,180,,,,,1,0,1,0,0,41,41,30,374.9774144003168,,,,,,,,,,374.9636712996289,374.9774144003168,375.3771462999284,375.3627337003127,0.4,375.36280809994787,375.3771462999284,375.3771462999284,375.476741399616,375.87708790041506,375.87708790041506,375.87708790041506,376.5294896000996,left,1,0.6469026999548078,None,,,,,,,,,,,,,,,,,,,,,,,,,,,,,,,,,,Quartz,1,22,Female,White,N/A,2024-12-06_10h58.59.245,dissANT,2023.2.3,60.39945780196241,2024-12-06 11h00.18.877861 -0600,
centre.png,incongRight.png,right,0,,,,,1,0,1,0,0,42,42,26,376.54380850028247,,,,,,,,,,376.5308438995853,376.54380850028247,376.9938465002924,376.9785987995565,0.45,376.9786548996344,376.9938465002924,376.9938465002924,377.09403149969876,377.49336730036885,377.49336730036885,377.49336730036885,378.09739740006626,right,1,0.5992304999381304,None,,,,,,,,,,,,,,,,,,,,,,,,,,,,,,,,,,Quartz,1,22,Female,White,N/A,2024-12-06_10h58.59.245,dissANT,2023.2.3,60.39945780196241,2024-12-06 11h00.18.877861 -0600,
lower.png,neutralRight.png,left,180,,,,,1,0,1,0,0,43,43,44,378.11037930008024,,,,,,,,,,378.09915290027857,378.11037930008024,378.56015000026673,378.54439590033144,0.45,378.54443660005927,378.56015000026673,378.56015000026673,378.6605449002236,379.04399229958653,379.04399229958653,379.0604272997007,379.5969872996211,left,1,0.5432302001863718,None,,,,,,,,,,,,,,,,,,,,,,,,,,,,,,,,,,Quartz,1,22,Female,White,N/A,2024-12-06_10h58.59.245,dissANT,2023.2.3,60.39945780196241,2024-12-06 11h00.18.877861 -0600,
upper.png,neutralRight.png,right,0,,,,,1,0,1,0,0,44,44,40,379.61021269951016,,,,,,,,,,379.598692599684,379.61021269951016,380.01062580011785,379.995076100342,0.4,379.99512610025704,380.01062580011785,380.01062580011785,380.11049719993025,380.5104224998504,380.5104224998504,380.5104224998504,381.0451873000711,right,1,0.518694800324738,None,,,,,,,,,,,,,,,,,,,,,,,,,,,,,,,,,,Quartz,1,22,Female,White,N/A,2024-12-06_10h58.59.245,dissANT,2023.2.3,60.39945780196241,2024-12-06 11h00.18.877861 -0600,
both.png,incongRight.png,left,180,,,,,1,0,1,0,0,45,45,29,381.060394000262,,,,,,,,,,381.0462702997029,381.060394000262,381.4604422003031,381.44616109970957,0.4,381.4462355002761,381.4604422003031,381.4604422003031,381.5601946003735,381.9604987995699,381.9604987995699,381.9604987995699,382.52877760026604,left,1,0.5577964996919036,None,,,,,,,,,,,,,,,,,,,,,,,,,,,,,,,,,,Quartz,1,22,Female,White,N/A,2024-12-06_10h58.59.245,dissANT,2023.2.3,60.39945780196241,2024-12-06 11h00.18.877861 -0600,
upper.png,congRight.png,right,0,,,,,1,0,1,0,0,46,46,8,382.5430121002719,,,,,,,,,,382.5302876001224,382.5430121002719,383.0434815995395,383.0289914002642,0.5,383.02906399965286,383.0434815995395,383.0434815995395,383.1437520002946,383.54373459983617,383.54373459983617,383.54373459983617,384.1605414003134,right,1,0.603931600227952,None,,,,,,,,,,,,,,,,,,,,,,,,,,,,,,,,,,Quartz,1,22,Female,White,N/A,2024-12-06_10h58.59.245,dissANT,2023.2.3,60.39945780196241,2024-12-06 11h00.18.877861 -0600,
centre.png,congRight.png,left,180,,,,,1,0,1,0,0,47,47,14,384.1767758000642,,,,,,,,,,384.16116220038384,384.1767758000642,384.5768409995362,384.56187220010906,0.4,384.56192720029503,384.5768409995362,384.5768409995362,384.6763775004074,385.0770886996761,385.0770886996761,385.0770886996761,385.56302629970014,left,1,0.47431639954447746,None,,,,,,,,,,,,,,,,,,,,,,,,,,,,,,,,,,Quartz,1,22,Female,White,N/A,2024-12-06_10h58.59.245,dissANT,2023.2.3,60.39945780196241,2024-12-06 11h00.18.877861 -0600,
blank.png,incongRight.png,right,0,,,,,1,0,1,0,1,0,48,27,385.5769399004057,,,,,,,,,,385.5644313003868,385.5769399004057,386.1267900997773,386.1120669003576,0.55,386.1121266996488,386.1267900997773,386.1267900997773,386.2269879002124,386.626867399551,386.626867399551,386.626867399551,387.01291660033166,left,0,0.3786973999813199,None,,,,,,,,,,,,,,,,,,,,,,,,,,,,,,,,,,Quartz,1,22,Female,White,N/A,2024-12-06_10h58.59.245,dissANT,2023.2.3,60.39945780196241,2024-12-06 11h00.18.877861 -0600,
upper.png,neutralRight.png,right,0,,,,,1,0,1,0,1,1,49,40,387.0269178003073,,,,,,,,,,387.014363899827,387.0269178003073,387.5267123999074,387.5116536002606,0.5,387.511710899882,387.5267123999074,387.5267123999074,387.6268648998812,388.0269767995924,388.0269767995924,388.0269767995924,388.4779511997476,right,1,0.43518249969929457,None,,,,,,,,,,,,,,,,,,,,,,,,,,,,,,,,,,Quartz,1,22,Female,White,N/A,2024-12-06_10h58.59.245,dissANT,2023.2.3,60.39945780196241,2024-12-06 11h00.18.877861 -0600,
both.png,congRight.png,left,180,,,,,1,0,1,0,1,2,50,13,388.49363140016794,,,,,,,,,,388.47940380033106,388.49363140016794,388.9436109997332,388.9285265998915,0.45,388.92858629953116,388.9436109997332,388.9436109997332,389.0438257995993,389.44367290008813,389.44367290008813,389.44367290008813,389.86269719991833,left,1,0.40315689984709024,None,,,,,,,,,,,,,,,,,,,,,,,,,,,,,,,,,,Quartz,1,22,Female,White,N/A,2024-12-06_10h58.59.245,dissANT,2023.2.3,60.39945780196241,2024-12-06 11h00.18.877861 -0600,
blank.png,congLeft.png,right,180,,,,,1,0,1,0,1,3,51,7,389.8769549001008,,,,,,,,,,389.8641833998263,389.8769549001008,390.42685830034316,390.4112941995263,0.55,390.4113467000425,390.42685830034316,390.42685830034316,390.52691739983857,390.9100972004235,390.9100972004235,390.9268327001482,391.44630439952016,right,1,0.5225992994382977,None,,,,,,,,,,,,,,,,,,,,,,,,,,,,,,,,,,Quartz,1,22,Female,White,N/A,2024-12-06_10h58.59.245,dissANT,2023.2.3,60.39945780196241,2024-12-06 11h00.18.877861 -0600,
blank.png,incongLeft.png,right,180,,,,,1,0,1,0,1,4,52,23,391.4604260995984,,,,,,,,,,391.44770380016416,391.4604260995984,392.00999030005187,391.99599159974605,0.55,391.9960644999519,392.00999030005187,392.00999030005187,392.1101304003969,392.5102172996849,392.5102172996849,392.5102172996849,393.1130325002596,right,1,0.5939381998032331,None,,,,,,,,,,,,,,,,,,,,,,,,,,,,,,,,,,Quartz,1,22,Female,White,N/A,2024-12-06_10h58.59.245,dissANT,2023.2.3,60.39945780196241,2024-12-06 11h00.18.877861 -0600,
blank.png,congRight.png,right,0,,,,,1,0,1,0,1,5,53,11,393.1266740998253,,,,,,,,,,393.1147445002571,393.1266740998253,393.526777099818,393.51215559989214,0.4,393.51222660019994,393.526777099818,393.526777099818,393.6268076999113,394.02685290016234,394.02685290016234,394.02685290016234,394.46266689989716,right,1,0.42604220006614923,None,,,,,,,,,,,,,,,,,,,,,,,,,,,,,,,,,,Quartz,1,22,Female,White,N/A,2024-12-06_10h58.59.245,dissANT,2023.2.3,60.39945780196241,2024-12-06 11h00.18.877861 -0600,
centre.png,incongRight.png,left,180,,,,,1,0,1,0,1,6,54,30,394.47657939977944,,,,,,,,,,394.4644053997472,394.47657939977944,395.02643639966846,395.01163799967617,0.55,395.0116998003796,395.02643639966846,395.02643639966846,395.1267696004361,395.5268088001758,395.5268088001758,395.5268088001758,395.9134921999648,right,0,0.3810126995667815,None,,,,,,,,,,,,,,,,,,,,,,,,,,,,,,,,,,Quartz,1,22,Female,White,N/A,2024-12-06_10h58.59.245,dissANT,2023.2.3,60.39945780196241,2024-12-06 11h00.18.877861 -0600,
both.png,incongRight.png,left,180,,,,,1,0,1,0,1,7,55,29,395.92667399998754,,,,,,,,,,395.9148757001385,395.92667399998754,396.4267242997885,396.4110217997804,0.5,396.41106360033154,396.4267242997885,396.4267242997885,396.52702879998833,396.91014140006155,396.91014140006155,396.92646939959377,397.4933992996812,left,1,0.5719601996243,None,,,,,,,,,,,,,,,,,,,,,,,,,,,,,,,,,,Quartz,1,22,Female,White,N/A,2024-12-06_10h58.59.245,dissANT,2023.2.3,60.39945780196241,2024-12-06 11h00.18.877861 -0600,
blank.png,incongRight.png,left,180,,,,,1,0,1,0,1,8,56,31,397.50938399974257,,,,,,,,,,397.4939058003947,397.50938399974257,398.01001940015703,397.99374349974096,0.5,397.9937766995281,398.01001940015703,398.01001940015703,398.11018969956785,398.4934694003314,398.4934694003314,398.51027680002153,399.0467814002186,left,1,0.5395182995125651,None,,,,,,,,,,,,,,,,,,,,,,,,,,,,,,,,,,Quartz,1,22,Female,White,N/A,2024-12-06_10h58.59.245,dissANT,2023.2.3,60.39945780196241,2024-12-06 11h00.18.877861 -0600,
lower.png,incongLeft.png,right,180,,,,,1,0,1,0,1,9,57,20,399.0600260999054,,,,,,,,,,399.04869170021266,399.0600260999054,399.4602554999292,399.4452176997438,0.4,399.4452569000423,399.4602554999292,399.4602554999292,399.5599550995976,399.9602333996445,399.9602333996445,399.9602333996445,400.5297064995393,right,1,0.5600915998220444,None,,,,,,,,,,,,,,,,,,,,,,,,,,,,,,,,,,Quartz,1,22,Female,White,N/A,2024-12-06_10h58.59.245,dissANT,2023.2.3,60.39945780196241,2024-12-06 11h00.18.877861 -0600,
centre.png,incongLeft.png,right,180,,,,,1,0,1,0,1,10,58,22,400.54333330038935,,,,,,,,,,400.53163050021976,400.54333330038935,401.04322549980134,401.0279145995155,0.5,401.02796369977295,401.04322549980134,401.04322549980134,401.1427277997136,401.5427246000618,401.5427246000618,401.5427246000618,402.07745029963553,right,1,0.5218090992420912,None,,,,,,,,,,,,,,,,,,,,,,,,,,,,,,,,,,Quartz,1,22,Female,White,N/A,2024-12-06_10h58.59.245,dissANT,2023.2.3,60.39945780196241,2024-12-06 11h00.18.877861 -0600,
lower.png,congRight.png,left,180,,,,,1,0,1,0,1,11,59,12,402.09279080014676,,,,,,,,,,402.0785312000662,402.09279080014676,402.5930049000308,402.57819159980863,0.5,402.5782658001408,402.5930049000308,402.5930049000308,402.69330480042845,403.0933338003233,403.0933338003233,403.0933338003233,403.5955555997789,left,1,0.48625950049608946,None,,,,,,,,,,,,,,,,,,,,,,,,,,,,,,,,,,Quartz,1,22,Female,White,N/A,2024-12-06_10h58.59.245,dissANT,2023.2.3,60.39945780196241,2024-12-06 11h00.18.877861 -0600,
upper.png,congRight.png,right,0,,,,,1,0,1,0,1,12,60,8,403.60992939956486,,,,,,,,,,403.59705630037934,403.60992939956486,404.0597732998431,404.0451018996537,0.45,404.0451988000423,404.0597732998431,404.0597732998431,404.1598963001743,404.55988349951804,404.55988349951804,404.55988349951804,405.1126357000321,right,1,0.5497292000800371,None,,,,,,,,,,,,,,,,,,,,,,,,,,,,,,,,,,Quartz,1,22,Female,White,N/A,2024-12-06_10h58.59.245,dissANT,2023.2.3,60.39945780196241,2024-12-06 11h00.18.877861 -0600,
centre.png,incongLeft.png,left,0,,,,,1,0,1,0,1,13,61,18,405.12606280017644,,,,,,,,,,405.1140558999032,405.12606280017644,405.57633259985596,405.5612393002957,0.45,405.561295799911,405.57633259985596,405.57633259985596,405.67676979955286,406.0766006996855,406.0766006996855,406.0766006996855,406.66228760033846,left,1,0.5781899001449347,None,,,,,,,,,,,,,,,,,,,,,,,,,,,,,,,,,,Quartz,1,22,Female,White,N/A,2024-12-06_10h58.59.245,dissANT,2023.2.3,60.39945780196241,2024-12-06 11h00.18.877861 -0600,
lower.png,incongRight.png,left,180,,,,,1,0,1,0,1,14,62,28,406.67608479969203,,,,,,,,,,406.66372849978507,406.67608479969203,407.2261688997969,407.2102463003248,0.55,407.2102769995108,407.2261688997969,407.2261688997969,407.3264154000208,407.7100857999176,407.7100857999176,407.72651760000736,408.24456419982016,left,1,0.5238383002579212,None,,,,,,,,,,,,,,,,,,,,,,,,,,,,,,,,,,Quartz,1,22,Female,White,N/A,2024-12-06_10h58.59.245,dissANT,2023.2.3,60.39945780196241,2024-12-06 11h00.18.877861 -0600,
upper.png,neutralLeft.png,left,0,,,,,1,0,1,0,1,15,63,32,408.2593502001837,,,,,,,,,,408.2458095997572,408.2593502001837,408.70983549952507,408.6946953004226,0.45,408.6947499997914,408.70983549952507,408.70983549952507,408.80974389985204,409.20982499979436,409.20982499979436,409.20982499979436,409.77902510017157,left,1,0.5618513002991676,None,,,,,,,,,,,,,,,,,,,,,,,,,,,,,,,,,,Quartz,1,22,Female,White,N/A,2024-12-06_10h58.59.245,dissANT,2023.2.3,60.39945780196241,2024-12-06 11h00.18.877861 -0600,
blank.png,neutralRight.png,right,0,,,,,1,0,1,0,1,16,64,43,409.7931743999943,,,,,,,,,,409.78058669995517,409.7931743999943,410.192787299864,410.1785003999248,0.4,410.1785840000957,410.192787299864,410.192787299864,410.2929525002837,410.69277829956263,410.69277829956263,410.69277829956263,411.3289176002145,right,1,0.6224475000053644,None,,,,,,,,,,,,,,,,,,,,,,,,,,,,,,,,,,Quartz,1,22,Female,White,N/A,2024-12-06_10h58.59.245,dissANT,2023.2.3,60.39945780196241,2024-12-06 11h00.18.877861 -0600,
centre.png,congRight.png,right,0,,,,,1,0,1,0,1,17,65,10,411.3431796003133,,,,,,,,,,411.3303897995502,411.3431796003133,411.7430779002607,411.7278966996819,0.4,411.7279564999044,411.7430779002607,411.7430779002607,411.8432590998709,412.2424929998815,412.2424929998815,412.2424929998815,412.72853880003095,right,1,0.46911870036274195,None,,,,,,,,,,,,,,,,,,,,,,,,,,,,,,,,,,Quartz,1,22,Female,White,N/A,2024-12-06_10h58.59.245,dissANT,2023.2.3,60.39945780196241,2024-12-06 11h00.18.877861 -0600,
centre.png,neutralLeft.png,right,180,,,,,1,0,1,0,1,18,66,38,412.74305099993944,,,,,,,,,,412.7300185998902,412.74305099993944,413.2925990000367,413.2766902996227,0.55,413.2767281997949,413.2925990000367,413.2925990000367,413.39315009955317,413.77632640022784,413.77632640022784,413.793235800229,414.2453837003559,right,1,0.45930059999227524,None,,,,,,,,,,,,,,,,,,,,,,,,,,,,,,,,,,Quartz,1,22,Female,White,N/A,2024-12-06_10h58.59.245,dissANT,2023.2.3,60.39945780196241,2024-12-06 11h00.18.877861 -0600,
centre.png,congRight.png,left,180,,,,,1,0,1,0,1,19,67,14,414.25958449952304,,,,,,,,,,414.24677469953895,414.25958449952304,414.7595240995288,414.74571289960295,0.5,414.74579100031406,414.7595240995288,414.7595240995288,414.8596061002463,415.2596589997411,415.2596589997411,415.2596589997411,415.72868010029197,left,1,0.45183940045535564,None,,,,,,,,,,,,,,,,,,,,,,,,,,,,,,,,,,Quartz,1,22,Female,White,N/A,2024-12-06_10h58.59.245,dissANT,2023.2.3,60.39945780196241,2024-12-06 11h00.18.877861 -0600,
both.png,congLeft.png,left,0,,,,,1,0,1,0,1,20,68,1,415.74300799984485,,,,,,,,,,415.73017769958824,415.74300799984485,416.24298200011253,416.22791959997267,0.5,416.22798310033977,416.24298200011253,416.24298200011253,416.3427542997524,416.7423099000007,416.7423099000007,416.7423099000007,417.19346570037305,left,1,0.4500932991504669,None,,,,,,,,,,,,,,,,,,,,,,,,,,,,,,,,,,Quartz,1,22,Female,White,N/A,2024-12-06_10h58.59.245,dissANT,2023.2.3,60.39945780196241,2024-12-06 11h00.18.877861 -0600,
upper.png,incongRight.png,right,0,,,,,1,0,1,0,1,21,69,24,417.2091904999688,,,,,,,,,,417.1940422998741,417.2091904999688,417.65969139989465,417.6445618001744,0.45,417.6446273997426,417.65969139989465,417.65969139989465,417.75945570040494,418.15983140002936,418.15983140002936,418.15983140002936,418.67866859957576,right,1,0.5062551004812121,None,,,,,,,,,,,,,,,,,,,,,,,,,,,,,,,,,,Quartz,1,22,Female,White,N/A,2024-12-06_10h58.59.245,dissANT,2023.2.3,60.39945780196241,2024-12-06 11h00.18.877861 -0600,
upper.png,incongLeft.png,left,0,,,,,1,0,1,0,1,22,70,16,418.69271770026535,,,,,,,,,,418.68029350042343,418.69271770026535,419.19274870026857,419.17866929993033,0.5,419.1787539003417,419.19274870026857,419.19274870026857,419.2929055998102,419.6931031001732,419.6931031001732,419.6931031001732,420.2288950998336,left,1,0.5229044994339347,None,,,,,,,,,,,,,,,,,,,,,,,,,,,,,,,,,,Quartz,1,22,Female,White,N/A,2024-12-06_10h58.59.245,dissANT,2023.2.3,60.39945780196241,2024-12-06 11h00.18.877861 -0600,
lower.png,neutralLeft.png,right,180,,,,,1,0,1,0,1,23,71,36,420.2428000001237,,,,,,,,,,420.23058729991317,420.2428000001237,420.74263569992036,420.72743470035493,0.5,420.72749330010265,420.74263569992036,420.74263569992036,420.8430775003508,421.2425151001662,421.2425151001662,421.2425151001662,421.82859039958566,right,1,0.5687774000689387,None,,,,,,,,,,,,,,,,,,,,,,,,,,,,,,,,,,Quartz,1,22,Female,White,N/A,2024-12-06_10h58.59.245,dissANT,2023.2.3,60.39945780196241,2024-12-06 11h00.18.877861 -0600,
both.png,incongRight.png,right,0,,,,,1,0,1,0,1,24,72,25,421.8428673995659,,,,,,,,,,421.83005079999566,421.8428673995659,422.3427357003093,422.3278133003041,0.5,422.32786950003356,422.3427357003093,422.3427357003093,422.44244320038706,422.8429381996393,422.8429381996393,422.8429381996393,423.2467639995739,left,0,0.3999460004270077,None,,,,,,,,,,,,,,,,,,,,,,,,,,,,,,,,,,Quartz,1,22,Female,White,N/A,2024-12-06_10h58.59.245,dissANT,2023.2.3,60.39945780196241,2024-12-06 11h00.18.877861 -0600,
lower.png,neutralRight.png,left,180,,,,,1,0,1,0,1,25,73,44,423.25924929976463,,,,,,,,,,423.2483553001657,423.25924929976463,423.70914539974183,423.6944311996922,0.45,423.69450249988586,423.70914539974183,423.70914539974183,423.8092000000179,424.2094919998199,424.2094919998199,424.2094919998199,424.7454238999635,left,1,0.5275526996701956,None,,,,,,,,,,,,,,,,,,,,,,,,,,,,,,,,,,Quartz,1,22,Female,White,N/A,2024-12-06_10h58.59.245,dissANT,2023.2.3,60.39945780196241,2024-12-06 11h00.18.877861 -0600,
