cue,tar,corrAns,targOrientation,pracLoop.thisRepN,pracLoop.thisTrialN,pracLoop.thisN,pracLoop.thisIndex,blockLoop.thisRepN,blockLoop.thisTrialN,blockLoop.thisN,blockLoop.thisIndex,mainLoop.thisRepN,mainLoop.thisTrialN,mainLoop.thisN,mainLoop.thisIndex,thisRow.t,notes,PracInstruc.started,pracText1.started,pracResp1.started,PracInstruc.stopped,PracInstruct2.started,practInst2.started,practResp2.started,PracInstruct2.stopped,fixation.started,image.started,image.stopped,fixation.stopped,fixFuration,trial.started,cues.started,fixationshort.started,cues.stopped,target.started,resp.started,fixationshort.stopped,trial.stopped,resp.keys,resp.corr,resp.rt,resp.duration,feedback.started,text.started,feedback.stopped,text.stopped,MainInstruc.started,mainInst.started,instResp.started,MainInstruc.stopped,instResp.keys,instResp.rt,instResp.duration,Rest.started,rest.started,restResp.started,Rest.stopped,MentalFatigue.started,FatigueQ.started,textbox.started,FatigueEnd.started,EndClick.started,MentalFatigue.stopped,textbox.text,EndClick.x,EndClick.y,EndClick.leftButton,EndClick.midButton,EndClick.rightButton,EndClick.time,EndClick.clicked_name,End.started,endText.started,endKey.started,End.stopped,participant,week,age,gender,race/ethnicity,cognitive health history,date,expName,psychopyVersion,frameRate,expStart,
blank.png,congLeft.png,left,0,0,0,0,3,,,,,,,,,6.722932299991953,,0.0014991999923950061,0.0037352999934228137,0.0037352999934228137,4.0851305999967735,4.085176399996271,4.102285899993149,4.102285899993149,6.686339599997154,6.709441200000583,6.722932299991953,7.1331067999999505,7.117469699995127,0.4,7.117529600000125,7.1331067999999505,7.1331067999999505,7.2331819999963045,7.6165894999867305,7.6165894999867305,7.633211799999117,8.220569299999624,left,1,0.5960458999907132,None,8.22506089998933,8.254912599993986,9.233360099999118,,,,,,,,,,,,,,,,,,,,,,,,,,,,,,,Eclipse,2,24,Female,Hispanic/Latino,,2024-12-12_17h25.11.455,dissANT,2023.2.3,59.94783339246443,2024-12-12 17h43.46.708912 -0600,
both.png,congLeft.png,left,0,0,1,1,1,,,,,,,,,9.24982889999228,,,,,,,,,,9.234555499991984,9.24982889999228,9.699727599989274,9.684689099987736,0.45,9.68475089999265,9.699727599989274,9.699727599989274,9.799768599987146,10.200026299993624,10.200026299993624,10.200026299993624,10.702287799998885,left,1,0.4917102000035811,None,10.703262399998493,10.717859199998202,11.716605899986462,,,,,,,,,,,,,,,,,,,,,,,,,,,,,,,Eclipse,2,24,Female,Hispanic/Latino,,2024-12-12_17h25.11.455,dissANT,2023.2.3,59.94783339246443,2024-12-12 17h43.46.708912 -0600,
upper.png,congLeft.png,left,0,0,2,2,0,,,,,,,,,11.733123599988176,,,,,,,,,,11.71782429999439,11.733123599988176,12.282893899988267,12.271058499987703,0.55,12.2711152999982,12.282893899988267,12.282893899988267,12.38313339999877,12.78293039998971,12.78293039998971,12.78293039998971,13.26907849998679,left,1,0.4785898999980418,None,13.270084499992663,13.283994499986875,14.26818609998736,14.282951499990304,,,,,,,,,,,,,,,,,,,,,,,,,,,,,,Eclipse,2,24,Female,Hispanic/Latino,,2024-12-12_17h25.11.455,dissANT,2023.2.3,59.94783339246443,2024-12-12 17h43.46.708912 -0600,
blank.png,incongLeft.png,right,180,0,3,3,23,,,,,,,,,14.282951499990304,,,,,,,,,,14.26924899998994,14.282951499990304,14.683122099988395,14.668053799992776,0.4,14.668103299991344,14.683122099988395,14.683122099988395,14.782932799993432,15.182706799998414,15.182706799998414,15.182706799998414,16.103538399998797,right,1,0.9119709999940824,None,16.104599599988433,16.117411100000027,17.11676710000029,,,,,,,,,,,,,,,,,,,,,,,,,,,,,,,Eclipse,2,24,Female,Hispanic/Latino,,2024-12-12_17h25.11.455,dissANT,2023.2.3,59.94783339246443,2024-12-12 17h43.46.708912 -0600,
centre.png,incongLeft.png,left,0,0,4,4,18,,,,,,,,,17.132955099994433,,,,,,,,,,17.11809839999478,17.132955099994433,17.632635899994057,17.61836329998914,0.5,17.61844909998763,17.632635899994057,17.632635899994057,17.732691499986686,18.132814299999154,18.132814299999154,18.132814299999154,18.735780899995007,left,1,0.5952259000041522,None,18.736808199988445,18.749168099995586,19.73449369998707,19.749582899996312,,,,,,,,,,,,,,,,,,,,,,,,,,,,,,Eclipse,2,24,Female,Hispanic/Latino,,2024-12-12_17h25.11.455,dissANT,2023.2.3,59.94783339246443,2024-12-12 17h43.46.708912 -0600,
centre.png,congLeft.png,right,180,0,5,5,6,,,,,,,,,19.749582899996312,,,,,,,,,,19.73540089999733,19.749582899996312,20.14936919999309,20.13433869999426,0.4,20.13440389999596,20.14936919999309,20.14936919999309,20.248989100000472,20.6497948999895,20.6497948999895,20.6497948999895,21.150404499989236,right,1,0.49164639999798965,None,21.15097999999125,21.165532999992138,22.151032199995825,22.165819499990903,,,,,,,,,,,,,,,,,,,,,,,,,,,,,,Eclipse,2,24,Female,Hispanic/Latino,,2024-12-12_17h25.11.455,dissANT,2023.2.3,59.94783339246443,2024-12-12 17h43.46.708912 -0600,
both.png,incongLeft.png,right,180,0,6,6,21,,,,,,,,,22.165819499990903,,,,,,,,,,22.151933499990264,22.165819499990903,22.61595110000053,22.600394499997492,0.45,22.600447399992845,22.61595110000053,22.61595110000053,22.715476999990642,23.116140300000552,23.116140300000552,23.116140300000552,23.535088699994958,left,0,0.4158387000061339,None,23.53610959999787,23.548773499991512,24.533313399995677,24.549284299995634,,,,,,,,,,,,,,,,,,,,,,,,,,,,,,Eclipse,2,24,Female,Hispanic/Latino,,2024-12-12_17h25.11.455,dissANT,2023.2.3,59.94783339246443,2024-12-12 17h43.46.708912 -0600,
both.png,congLeft.png,right,180,0,7,7,5,,,,,,,,,24.549284299995634,,,,,,,,,,24.53397399999085,24.549284299995634,25.04887259998941,25.033144499990158,0.5,25.033190199988894,25.04887259998941,25.04887259998941,25.14960859999701,25.532857499987585,25.532857499987585,25.54947819998779,26.019456999987597,right,1,0.4826272000063909,None,26.02060459999484,26.032894399992074,27.016159999999218,27.031995199999074,,,,,,,,,,,,,,,,,,,,,,,,,,,,,,Eclipse,2,24,Female,Hispanic/Latino,,2024-12-12_17h25.11.455,dissANT,2023.2.3,59.94783339246443,2024-12-12 17h43.46.708912 -0600,
blank.png,incongLeft.png,left,0,0,8,8,19,,,,,,,,,27.031995199999074,,,,,,,,,,27.01667239998642,27.031995199999074,27.432260899993707,27.416515099990647,0.4,27.416542499995558,27.432260899993707,27.432260899993707,27.532659599994076,27.932414199996856,27.932414199996856,27.932414199996856,28.64922829999705,left,1,0.7027057000086643,None,28.64939759999106,28.665566199997556,29.650592099991627,29.6657806999865,,,,,,,,,,,,,,,,,,,,,,,,,,,,,,Eclipse,2,24,Female,Hispanic/Latino,,2024-12-12_17h25.11.455,dissANT,2023.2.3,59.94783339246443,2024-12-12 17h43.46.708912 -0600,
upper.png,congRight.png,right,0,0,9,9,8,,,,,,,,,29.6657806999865,,,,,,,,,,29.65154089999851,29.6657806999865,30.215291699991212,30.199592899996787,0.55,30.199633500000346,30.215291699991212,30.215291699991212,30.315500099997735,30.69941729999846,30.69941729999846,30.715832799993223,31.18478499999037,right,1,0.4824625999899581,None,31.185631999993348,31.19899330000044,32.18273689999478,32.198885699996026,,,,,,,,,,,,,,,,,,,,,,,,,,,,,,Eclipse,2,24,Female,Hispanic/Latino,,2024-12-12_17h25.11.455,dissANT,2023.2.3,59.94783339246443,2024-12-12 17h43.46.708912 -0600,
centre.png,congRight.png,right,0,0,10,10,10,,,,,,,,,32.198885699996026,,,,,,,,,,32.18295579998812,32.198885699996026,32.6988457999978,32.684579299995676,0.5,32.68465739999374,32.6988457999978,32.6988457999978,32.799154599997564,33.19862779999676,33.19862779999676,33.19862779999676,33.64909559999069,right,1,0.44942770000488963,None,33.649281499994686,33.665053899996565,34.64930859999731,34.665621599997394,,,,,,,,,,,,,,,,,,,,,,,,,,,,,,Eclipse,2,24,Female,Hispanic/Latino,,2024-12-12_17h25.11.455,dissANT,2023.2.3,59.94783339246443,2024-12-12 17h43.46.708912 -0600,
blank.png,congRight.png,right,0,0,11,11,11,,,,,,,,,34.665621599997394,,,,,,,,,,34.6498023999884,34.665621599997394,35.11555599998974,35.100768299991614,0.45,35.10083529999247,35.11555599998974,35.11555599998974,35.215294899986475,35.61518979999528,35.61518979999528,35.61518979999528,36.148927099988214,right,1,0.5311923999979626,None,36.14909279999847,36.164913000000524,37.14993639999011,37.1652991999872,,,,,,,,,,,,,,,,,,,,,,,,,,,,,,Eclipse,2,24,Female,Hispanic/Latino,,2024-12-12_17h25.11.455,dissANT,2023.2.3,59.94783339246443,2024-12-12 17h43.46.708912 -0600,
lower.png,incongLeft.png,right,180,0,12,12,20,,,,,,,,,37.1652991999872,,,,,,,,,,37.15067189998808,37.1652991999872,37.71546189999208,37.69886209999095,0.55,37.69887919999019,37.71546189999208,37.71546189999208,37.81486099999165,38.19862899999134,38.19862899999134,38.2149853999872,38.79912109998986,right,1,0.5959211000008509,None,38.79933009999513,38.815115399993374,39.79871719999937,39.81492979999166,,,,,,,,,,,,,,,,,,,,,,,,,,,,,,Eclipse,2,24,Female,Hispanic/Latino,,2024-12-12_17h25.11.455,dissANT,2023.2.3,59.94783339246443,2024-12-12 17h43.46.708912 -0600,
both.png,incongLeft.png,left,0,0,13,13,17,,,,,,,,,39.81492979999166,,,,,,,,,,39.7989610999939,39.81492979999166,40.21541689999867,40.200584499994875,0.4,40.20064589999674,40.21541689999867,40.21541689999867,40.315111699994304,40.7152528000006,40.7152528000006,40.7152528000006,41.24865909999062,left,1,0.5208490999939386,None,41.24885249999352,41.26561599998968,42.24891959999513,42.26508249998733,,,,,,,,,,,,,,,,,,,,,,,,,,,,,,Eclipse,2,24,Female,Hispanic/Latino,,2024-12-12_17h25.11.455,dissANT,2023.2.3,59.94783339246443,2024-12-12 17h43.46.708912 -0600,
lower.png,congRight.png,left,180,0,14,14,12,,,,,,,,,42.26508249998733,,,,,,,,,,42.24907219999295,42.26508249998733,42.66519019998668,42.64880830000038,0.4,42.6488260999904,42.66519019998668,42.66519019998668,42.76522560000012,43.149052399996435,43.149052399996435,43.16497349999554,43.75168269999267,left,1,0.5856348000088474,None,43.75232909999613,43.765399299998535,44.749006300000474,44.765271099997335,,,,,,,,,,,,,,,,,,,,,,,,,,,,,,Eclipse,2,24,Female,Hispanic/Latino,,2024-12-12_17h25.11.455,dissANT,2023.2.3,59.94783339246443,2024-12-12 17h43.46.708912 -0600,
blank.png,congLeft.png,right,180,0,15,15,7,,,,,,,,,44.765271099997335,,,,,,,,,,44.749510399997234,44.765271099997335,45.21510459999263,45.19855009998719,0.45,45.198560999997426,45.21510459999263,45.21510459999263,45.31471979999333,45.6990858999925,45.6990858999925,45.71547909999208,46.15166869999666,right,1,0.434997199990903,None,46.15279819999705,46.16504389999318,47.15100220000022,47.16551829999662,,,,,,,,,,,,,,,,,,,,,,,,,,,,,,Eclipse,2,24,Female,Hispanic/Latino,,2024-12-12_17h25.11.455,dissANT,2023.2.3,59.94783339246443,2024-12-12 17h43.46.708912 -0600,
lower.png,congLeft.png,right,180,0,16,16,4,,,,,,,,,47.16551829999662,,,,,,,,,,47.15205039999273,47.16551829999662,47.66506409998692,47.64870819999487,0.5,47.648731499997666,47.66506409998692,47.66506409998692,47.76531889999751,48.14875619999657,48.14875619999657,48.165427499989164,48.60116519998701,right,1,0.4416055000037886,None,48.6021585999988,48.61479859999963,49.60022929999104,49.61546039998939,,,,,,,,,,,,,,,,,,,,,,,,,,,,,,Eclipse,2,24,Female,Hispanic/Latino,,2024-12-12_17h25.11.455,dissANT,2023.2.3,59.94783339246443,2024-12-12 17h43.46.708912 -0600,
both.png,congRight.png,left,180,0,17,17,13,,,,,,,,,49.61546039998939,,,,,,,,,,49.601121199986665,49.61546039998939,50.11509339998884,50.10035439999774,0.5,50.10041669999191,50.11509339998884,50.11509339998884,50.215448999995715,50.615382999996655,50.615382999996655,50.615382999996655,51.06839509999554,left,1,0.43876259999524336,None,51.069640699992306,51.081852599993,52.0672091999877,52.08184089999122,,,,,,,,,,,,,,,,,,,,,,,,,,,,,,Eclipse,2,24,Female,Hispanic/Latino,,2024-12-12_17h25.11.455,dissANT,2023.2.3,59.94783339246443,2024-12-12 17h43.46.708912 -0600,
centre.png,congRight.png,left,180,0,18,18,14,,,,,,,,,52.08184089999122,,,,,,,,,,52.0682250999962,52.08184089999122,52.48176319999038,52.46659889999137,0.4,52.466672799986554,52.48176319999038,52.48176319999038,52.581777499988675,52.982022799988044,52.982022799988044,52.982022799988044,53.383761699995375,left,1,0.3967479999992065,None,53.384614899987355,53.39840339998773,54.383303499998874,54.39804770000046,,,,,,,,,,,,,,,,,,,,,,,,,,,,,,Eclipse,2,24,Female,Hispanic/Latino,,2024-12-12_17h25.11.455,dissANT,2023.2.3,59.94783339246443,2024-12-12 17h43.46.708912 -0600,
both.png,congRight.png,right,0,0,19,19,9,,,,,,,,,54.39804770000046,,,,,,,,,,54.38424959999975,54.39804770000046,54.84844589998829,54.832689899994875,0.45,54.83273159999226,54.84844589998829,54.84844589998829,54.94859919999726,55.348492699995404,55.348492699995404,55.348492699995404,55.80093349999515,right,1,0.4379441999917617,None,55.80194009999104,55.81462369998917,56.79993319998903,56.81499569999869,,,,,,,,,,,,,,,,,,,,,,,,,,,,,,Eclipse,2,24,Female,Hispanic/Latino,,2024-12-12_17h25.11.455,dissANT,2023.2.3,59.94783339246443,2024-12-12 17h43.46.708912 -0600,
centre.png,congLeft.png,left,0,0,20,20,2,,,,,,,,,56.81499569999869,,,,,,,,,,56.8007316999865,56.81499569999869,57.21496379999735,57.20011649999651,0.4,57.20018010000058,57.21496379999735,57.21496379999735,57.315198500000406,57.715246699997806,57.715246699997806,57.715246699997806,58.08375259999593,left,1,0.3516665000061039,None,58.084831299987854,58.09816819999833,59.083130099999835,59.09828729998844,,,,,,,,,,,,,,,,,,,,,,,,,,,,,,Eclipse,2,24,Female,Hispanic/Latino,,2024-12-12_17h25.11.455,dissANT,2023.2.3,59.94783339246443,2024-12-12 17h43.46.708912 -0600,
blank.png,congRight.png,left,180,0,21,21,15,,,,,,,,,59.09828729998844,,,,,,,,,,59.08402979999664,59.09828729998844,59.49822019999556,59.48344279998855,0.4,59.48351839999668,59.49822019999556,59.49822019999556,59.59855489998881,59.998600299993996,59.998600299993996,59.998600299993996,60.484991999997874,left,1,0.4821289999963483,None,60.48619269998744,60.497975999998744,61.48280659999,61.498294899996836,,,,,,,,,,,,,,,,,,,,,,,,,,,,,,Eclipse,2,24,Female,Hispanic/Latino,,2024-12-12_17h25.11.455,dissANT,2023.2.3,59.94783339246443,2024-12-12 17h43.46.708912 -0600,
centre.png,incongLeft.png,right,180,0,22,22,22,,,,,,,,,61.498294899996836,,,,,,,,,,61.4835458999878,61.498294899996836,61.998034699994605,61.983322899992345,0.5,61.98338409999269,61.998034699994605,61.998034699994605,62.09828539998853,62.49796959999367,62.49796959999367,62.49796959999367,63.215171699994244,right,1,0.7046367000002647,None,63.21550809999462,63.230973899990204,64.21660979998705,64.23156929999823,,,,,,,,,,,,,,,,,,,,,,,,,,,,,,Eclipse,2,24,Female,Hispanic/Latino,,2024-12-12_17h25.11.455,dissANT,2023.2.3,59.94783339246443,2024-12-12 17h43.46.708912 -0600,
upper.png,incongLeft.png,left,0,0,23,23,16,,,,,,,,,64.23156929999823,,,,,,,,,,64.21750229998725,64.23156929999823,64.63157899999351,64.61680049999268,0.4,64.61688509999658,64.63157899999351,64.63157899999351,64.73159219999798,65.13170639998862,65.13170639998862,65.13170639998862,65.75126469999668,left,1,0.6172208999923896,None,65.75214529999357,65.7644808999903,66.75043499999447,66.76489959999162,,,,,,,,,,,,,,,,,,,,,,,,,,,,,,Eclipse,2,24,Female,Hispanic/Latino,,2024-12-12_17h25.11.455,dissANT,2023.2.3,59.94783339246443,2024-12-12 17h43.46.708912 -0600,
,,,,,,,,,,,,,,,,,,,,,,,,,,,,,,,,,,,,,,,,,,,,,,,66.75064849999035,66.76489959999162,66.76489959999162,71.66708949999884,space,4.889892399995006,None,,,,,,,,,,,,,,,,,,,,,,,Eclipse,2,24,Female,Hispanic/Latino,,2024-12-12_17h25.11.455,dissANT,2023.2.3,59.94783339246443,2024-12-12 17h43.46.708912 -0600,
lower.png,neutralLeft.png,right,180,,,,,0,0,0,0,0,0,0,36,71.6900181999954,,,,,,,,,,71.68683169998985,71.6900181999954,72.19786979998753,72.18324609998672,0.5,72.18331879998732,72.19786979998753,72.19786979998753,72.29837059999409,72.6977157999936,72.6977157999936,72.6977157999936,73.26631649999763,right,1,0.5630746999959229,None,,,,,,,,,,,,,,,,,,,,,,,,,,,,,,,,,,Eclipse,2,24,Female,Hispanic/Latino,,2024-12-12_17h25.11.455,dissANT,2023.2.3,59.94783339246443,2024-12-12 17h43.46.708912 -0600,
blank.png,neutralLeft.png,right,180,,,,,0,0,0,0,0,1,1,39,73.28109559998848,,,,,,,,,,73.26789029999054,73.28109559998848,73.78127429999586,73.76595299999462,0.5,73.76600730000064,73.78127429999586,73.78127429999586,73.88129710000067,74.28094879999117,74.28094879999117,74.28094879999117,74.78445589999319,right,1,0.49180499999783933,None,,,,,,,,,,,,,,,,,,,,,,,,,,,,,,,,,,Eclipse,2,24,Female,Hispanic/Latino,,2024-12-12_17h25.11.455,dissANT,2023.2.3,59.94783339246443,2024-12-12 17h43.46.708912 -0600,
both.png,incongRight.png,right,0,,,,,0,0,0,0,0,2,2,25,74.79811669999617,,,,,,,,,,74.78614709999238,74.79811669999617,75.2981931999966,75.28248059999896,0.5,75.28253929999482,75.2981931999966,75.2981931999966,75.39807509999082,75.79739199999312,75.79739199999312,75.79739199999312,76.39778400000068,right,1,0.5936658999999054,None,,,,,,,,,,,,,,,,,,,,,,,,,,,,,,,,,,Eclipse,2,24,Female,Hispanic/Latino,,2024-12-12_17h25.11.455,dissANT,2023.2.3,59.94783339246443,2024-12-12 17h43.46.708912 -0600,
both.png,neutralLeft.png,left,0,,,,,0,0,0,0,0,3,3,33,76.41398879999178,,,,,,,,,,76.39810639999632,76.41398879999178,76.86434419998841,76.8484657999943,0.45,76.84849089999625,76.86434419998841,76.86434419998841,76.96449600000051,77.34821169999486,77.34821169999486,77.36442269998952,77.88382569998794,left,1,0.5226494000089588,None,,,,,,,,,,,,,,,,,,,,,,,,,,,,,,,,,,Eclipse,2,24,Female,Hispanic/Latino,,2024-12-12_17h25.11.455,dissANT,2023.2.3,59.94783339246443,2024-12-12 17h43.46.708912 -0600,
blank.png,incongLeft.png,right,180,,,,,0,0,0,0,0,4,4,23,77.89782419998664,,,,,,,,,,77.88523189999978,77.89782419998664,78.44757249999384,78.43257849999645,0.55,78.43263539999316,78.44757249999384,78.44757249999384,78.54745569999795,78.94784529999015,78.94784529999015,78.94784529999015,79.61682839998684,right,1,0.6516708999988623,None,,,,,,,,,,,,,,,,,,,,,,,,,,,,,,,,,,Eclipse,2,24,Female,Hispanic/Latino,,2024-12-12_17h25.11.455,dissANT,2023.2.3,59.94783339246443,2024-12-12 17h43.46.708912 -0600,
both.png,incongRight.png,left,180,,,,,0,0,0,0,0,5,5,29,79.630740099994,,,,,,,,,,79.61836209999456,79.630740099994,80.03103919999558,80.01629409998714,0.4,80.01635569999053,80.03103919999558,80.03103919999558,80.13144689999172,80.53134579998732,80.53134579998732,80.53134579998732,81.06677489999856,left,1,0.5294814999942901,None,,,,,,,,,,,,,,,,,,,,,,,,,,,,,,,,,,Eclipse,2,24,Female,Hispanic/Latino,,2024-12-12_17h25.11.455,dissANT,2023.2.3,59.94783339246443,2024-12-12 17h43.46.708912 -0600,
centre.png,incongLeft.png,left,0,,,,,0,0,0,0,0,6,6,18,81.0809789999912,,,,,,,,,,81.06816219999746,81.0809789999912,81.58113749999029,81.56643229999463,0.5,81.56650039998931,81.58113749999029,81.58113749999029,81.68128489999799,82.08114939999359,82.08114939999359,82.08114939999359,82.70034919999307,left,1,0.6106694000045536,None,,,,,,,,,,,,,,,,,,,,,,,,,,,,,,,,,,Eclipse,2,24,Female,Hispanic/Latino,,2024-12-12_17h25.11.455,dissANT,2023.2.3,59.94783339246443,2024-12-12 17h43.46.708912 -0600,
upper.png,congRight.png,right,0,,,,,0,0,0,0,0,7,7,8,82.71392739999283,,,,,,,,,,82.70177839999087,82.71392739999283,83.16439449999598,83.1495384999871,0.45,83.14960140000039,83.16439449999598,83.16439449999598,83.263804599992,83.66447809999227,83.66447809999227,83.66447809999227,84.26688049999939,right,1,0.5872942999994848,None,,,,,,,,,,,,,,,,,,,,,,,,,,,,,,,,,,Eclipse,2,24,Female,Hispanic/Latino,,2024-12-12_17h25.11.455,dissANT,2023.2.3,59.94783339246443,2024-12-12 17h43.46.708912 -0600,
both.png,congRight.png,left,180,,,,,0,0,0,0,0,8,8,13,84.28110939999169,,,,,,,,,,84.26852030000009,84.28110939999169,84.68117889999121,84.66607289999956,0.4,84.66613569999754,84.68117889999121,84.68117889999121,84.7813199999946,85.18102910000016,85.18102910000016,85.18102910000016,85.66639059998852,left,1,0.4779848999896785,None,,,,,,,,,,,,,,,,,,,,,,,,,,,,,,,,,,Eclipse,2,24,Female,Hispanic/Latino,,2024-12-12_17h25.11.455,dissANT,2023.2.3,59.94783339246443,2024-12-12 17h43.46.708912 -0600,
blank.png,neutralLeft.png,left,0,,,,,0,0,0,0,0,9,9,35,85.68065859998751,,,,,,,,,,85.66770369998994,85.68065859998751,86.23104469999089,86.21613339999749,0.55,86.21619409999403,86.23104469999089,86.23104469999089,86.33126639999682,86.73137929999211,86.73137929999211,86.73137929999211,87.26692129998992,left,1,0.5275781000091229,None,,,,,,,,,,,,,,,,,,,,,,,,,,,,,,,,,,Eclipse,2,24,Female,Hispanic/Latino,,2024-12-12_17h25.11.455,dissANT,2023.2.3,59.94783339246443,2024-12-12 17h43.46.708912 -0600,
blank.png,congLeft.png,left,0,,,,,0,0,0,0,0,10,10,3,87.28050809999695,,,,,,,,,,87.26854319999984,87.28050809999695,87.73084979999112,87.71587799998815,0.45,87.71595529999468,87.73084979999112,87.73084979999112,87.83090639999136,88.23106700000062,88.23106700000062,88.23106700000062,88.68398949998664,left,1,0.4370645000017248,None,,,,,,,,,,,,,,,,,,,,,,,,,,,,,,,,,,Eclipse,2,24,Female,Hispanic/Latino,,2024-12-12_17h25.11.455,dissANT,2023.2.3,59.94783339246443,2024-12-12 17h43.46.708912 -0600,
centre.png,congRight.png,right,0,,,,,0,0,0,0,0,11,11,10,88.69774529999995,,,,,,,,,,88.68576480000047,88.69774529999995,89.1475708999933,89.13334299999406,0.45,89.13342109999212,89.1475708999933,89.1475708999933,89.24803709999833,89.64788739998767,89.64788739998767,89.64788739998767,90.03423979999206,right,1,0.38196090000565164,None,,,,,,,,,,,,,,,,,,,,,,,,,,,,,,,,,,Eclipse,2,24,Female,Hispanic/Latino,,2024-12-12_17h25.11.455,dissANT,2023.2.3,59.94783339246443,2024-12-12 17h43.46.708912 -0600,
centre.png,neutralRight.png,left,180,,,,,0,0,0,0,0,12,12,46,90.04703599998902,,,,,,,,,,90.03601719999278,90.04703599998902,90.44754069999908,90.43186489999061,0.4,90.43191179999849,90.44754069999908,90.44754069999908,90.54751219999162,90.93098039999313,90.93098039999313,90.94761699999799,91.4315779999888,left,1,0.4868879999994533,None,,,,,,,,,,,,,,,,,,,,,,,,,,,,,,,,,,Eclipse,2,24,Female,Hispanic/Latino,,2024-12-12_17h25.11.455,dissANT,2023.2.3,59.94783339246443,2024-12-12 17h43.46.708912 -0600,
blank.png,congRight.png,left,180,,,,,0,0,0,0,0,13,13,15,91.44689169999037,,,,,,,,,,91.4326344999863,91.44689169999037,91.94756129999587,91.93242239998654,0.5,91.9324854999868,91.94756129999587,91.94756129999587,92.04759229999036,92.44753499999933,92.44753499999933,92.44753499999933,92.85151519998908,left,1,0.4010456999967573,None,,,,,,,,,,,,,,,,,,,,,,,,,,,,,,,,,,Eclipse,2,24,Female,Hispanic/Latino,,2024-12-12_17h25.11.455,dissANT,2023.2.3,59.94783339246443,2024-12-12 17h43.46.708912 -0600,
blank.png,neutralRight.png,right,0,,,,,0,0,0,0,0,14,14,43,92.86410589999286,,,,,,,,,,92.85282419998839,92.86410589999286,93.31385609999415,93.29908339999383,0.45,93.29914369998733,93.31385609999415,93.31385609999415,93.41432649998751,93.81440479999583,93.81440479999583,93.81440479999583,94.33251419999579,right,1,0.503529100009473,None,,,,,,,,,,,,,,,,,,,,,,,,,,,,,,,,,,Eclipse,2,24,Female,Hispanic/Latino,,2024-12-12_17h25.11.455,dissANT,2023.2.3,59.94783339246443,2024-12-12 17h43.46.708912 -0600,
both.png,incongLeft.png,right,180,,,,,0,0,0,0,0,15,15,21,94.34735969999747,,,,,,,,,,94.33377699999255,94.34735969999747,94.84762839999166,94.83134769999015,0.5,94.8313851999992,94.84762839999166,94.84762839999166,94.94754199999443,95.33085339999525,95.33085339999525,95.3474123999913,95.79867589999049,left,0,0.45177079999120906,None,,,,,,,,,,,,,,,,,,,,,,,,,,,,,,,,,,Eclipse,2,24,Female,Hispanic/Latino,,2024-12-12_17h25.11.455,dissANT,2023.2.3,59.94783339246443,2024-12-12 17h43.46.708912 -0600,
blank.png,neutralRight.png,left,180,,,,,0,0,0,0,0,16,16,47,95.81340400000045,,,,,,,,,,95.80021459999261,95.81340400000045,96.21412609999243,96.19909009999537,0.4,96.19915069999115,96.21412609999243,96.21412609999243,96.31418039998971,96.7140464999975,96.7140464999975,96.7140464999975,97.28375349999988,left,1,0.553302000000258,None,,,,,,,,,,,,,,,,,,,,,,,,,,,,,,,,,,Eclipse,2,24,Female,Hispanic/Latino,,2024-12-12_17h25.11.455,dissANT,2023.2.3,59.94783339246443,2024-12-12 17h43.46.708912 -0600,
blank.png,congLeft.png,right,180,,,,,0,0,0,0,0,17,17,7,97.29742609999084,,,,,,,,,,97.28560309999739,97.29742609999084,97.69756839999172,97.68163690000074,0.4,97.68169079998916,97.69756839999172,97.69756839999172,97.79692139998951,98.18152309999277,98.18152309999277,98.19768479999038,98.6330750999914,right,1,0.443528999996488,None,,,,,,,,,,,,,,,,,,,,,,,,,,,,,,,,,,Eclipse,2,24,Female,Hispanic/Latino,,2024-12-12_17h25.11.455,dissANT,2023.2.3,59.94783339246443,2024-12-12 17h43.46.708912 -0600,
centre.png,incongRight.png,right,0,,,,,0,0,0,0,0,18,18,26,98.6473483999871,,,,,,,,,,98.6345808999904,98.6473483999871,99.19733979999728,99.18355059999158,0.55,99.18362549999438,99.19733979999728,99.19733979999728,99.2977106999897,99.69744819999323,99.69744819999323,99.69744819999323,100.33286579999549,right,1,0.6183431999961613,None,,,,,,,,,,,,,,,,,,,,,,,,,,,,,,,,,,Eclipse,2,24,Female,Hispanic/Latino,,2024-12-12_17h25.11.455,dissANT,2023.2.3,59.94783339246443,2024-12-12 17h43.46.708912 -0600,
centre.png,neutralRight.png,right,0,,,,,0,0,0,0,0,19,19,42,100.34736819998943,,,,,,,,,,100.33433449998847,100.34736819998943,100.79748989999644,100.78231919999234,0.45,100.78238129999954,100.79748989999644,100.79748989999644,100.89715819999401,101.29757279998739,101.29757279998739,101.29757279998739,101.78333899998688,right,1,0.4750754999986384,None,,,,,,,,,,,,,,,,,,,,,,,,,,,,,,,,,,Eclipse,2,24,Female,Hispanic/Latino,,2024-12-12_17h25.11.455,dissANT,2023.2.3,59.94783339246443,2024-12-12 17h43.46.708912 -0600,
both.png,congRight.png,right,0,,,,,0,0,0,0,0,20,20,9,101.79727529999218,,,,,,,,,,101.78501659999893,101.79727529999218,102.24702260000049,102.23205139998754,0.45,102.23212039998907,102.24702260000049,102.24702260000049,102.34718959999736,102.74747789998946,102.74747789998946,102.74747789998946,103.18343489999825,right,1,0.4259357999981148,None,,,,,,,,,,,,,,,,,,,,,,,,,,,,,,,,,,Eclipse,2,24,Female,Hispanic/Latino,,2024-12-12_17h25.11.455,dissANT,2023.2.3,59.94783339246443,2024-12-12 17h43.46.708912 -0600,
upper.png,congLeft.png,left,0,,,,,0,0,0,0,0,21,21,0,103.19739370000025,,,,,,,,,,103.18485669999791,103.19739370000025,103.64688589998696,103.63309879999724,0.45,103.63317399998778,103.64688589998696,103.64688589998696,103.74698639998678,104.1473726999975,104.1473726999975,104.1473726999975,104.6169768999971,left,1,0.45689930001390167,None,,,,,,,,,,,,,,,,,,,,,,,,,,,,,,,,,,Eclipse,2,24,Female,Hispanic/Latino,,2024-12-12_17h25.11.455,dissANT,2023.2.3,59.94783339246443,2024-12-12 17h43.46.708912 -0600,
both.png,incongLeft.png,left,0,,,,,0,0,0,0,0,22,22,17,104.63046619998931,,,,,,,,,,104.61871849998715,104.63046619998931,105.18039119998866,105.16629889998876,0.55,105.16638609999791,105.18039119998866,105.18039119998866,105.28071490000002,105.68021049999516,105.68021049999516,105.68021049999516,106.2330488999869,left,1,0.5398970999958692,None,,,,,,,,,,,,,,,,,,,,,,,,,,,,,,,,,,Eclipse,2,24,Female,Hispanic/Latino,,2024-12-12_17h25.11.455,dissANT,2023.2.3,59.94783339246443,2024-12-12 17h43.46.708912 -0600,
upper.png,neutralRight.png,right,0,,,,,0,0,0,0,0,23,23,40,106.24670059999335,,,,,,,,,,106.23448609998741,106.24670059999335,106.74713150000025,106.73320129999775,0.5,106.73327969999809,106.74713150000025,106.74713150000025,106.84746439999435,107.24689589999616,107.24689589999616,107.24689589999616,107.88274849999289,right,1,0.6294702000013785,None,,,,,,,,,,,,,,,,,,,,,,,,,,,,,,,,,,Eclipse,2,24,Female,Hispanic/Latino,,2024-12-12_17h25.11.455,dissANT,2023.2.3,59.94783339246443,2024-12-12 17h43.46.708912 -0600,
both.png,neutralLeft.png,right,180,,,,,0,0,0,0,0,24,24,37,107.89727859999402,,,,,,,,,,107.88404719998653,107.89727859999402,108.34673769999063,108.33102809998672,0.45,108.33107609998842,108.34673769999063,108.34673769999063,108.4472342999943,108.83052579998912,108.83052579998912,108.84667319999426,109.40004639999825,right,1,0.5506859000015538,None,,,,,,,,,,,,,,,,,,,,,,,,,,,,,,,,,,Eclipse,2,24,Female,Hispanic/Latino,,2024-12-12_17h25.11.455,dissANT,2023.2.3,59.94783339246443,2024-12-12 17h43.46.708912 -0600,
centre.png,congLeft.png,right,180,,,,,0,0,0,0,0,25,25,6,109.41356509999605,,,,,,,,,,109.40196359998663,109.41356509999605,109.86335329999565,109.84895879999385,0.45,109.84906569999293,109.86335329999565,109.86335329999565,109.96324829998775,110.36387199998717,110.36387199998717,110.36387199998717,110.78267809998943,right,1,0.4152743000013288,None,,,,,,,,,,,,,,,,,,,,,,,,,,,,,,,,,,Eclipse,2,24,Female,Hispanic/Latino,,2024-12-12_17h25.11.455,dissANT,2023.2.3,59.94783339246443,2024-12-12 17h43.46.708912 -0600,
both.png,neutralRight.png,left,180,,,,,0,0,0,0,0,26,26,45,110.79721309999877,,,,,,,,,,110.78413419998833,110.79721309999877,111.34693759999936,111.33179820000078,0.55,111.33186249999562,111.34693759999936,111.34693759999936,111.44651949999388,111.8473246999929,111.8473246999929,111.8473246999929,112.24934479998774,left,1,0.38760529999854043,None,,,,,,,,,,,,,,,,,,,,,,,,,,,,,,,,,,Eclipse,2,24,Female,Hispanic/Latino,,2024-12-12_17h25.11.455,dissANT,2023.2.3,59.94783339246443,2024-12-12 17h43.46.708912 -0600,
lower.png,congRight.png,left,180,,,,,0,0,0,0,0,27,27,12,112.26352919999044,,,,,,,,,,112.25089939999452,112.26352919999044,112.81362529999751,112.79862159999902,0.55,112.79868279999937,112.81362529999751,112.81362529999751,112.91358929999114,113.31387030000042,113.31387030000042,113.31387030000042,113.79913309999392,left,1,0.47871939999458846,None,,,,,,,,,,,,,,,,,,,,,,,,,,,,,,,,,,Eclipse,2,24,Female,Hispanic/Latino,,2024-12-12_17h25.11.455,dissANT,2023.2.3,59.94783339246443,2024-12-12 17h43.46.708912 -0600,
centre.png,incongRight.png,left,180,,,,,0,0,0,0,0,28,28,30,113.81366059998982,,,,,,,,,,113.80060689999664,113.81366059998982,114.31340009999985,114.29929450000054,0.5,114.29937059999793,114.31340009999985,114.31340009999985,114.41367809999792,114.8133308999968,114.8133308999968,114.8133308999968,115.33348159999878,left,1,0.5166237999947043,None,,,,,,,,,,,,,,,,,,,,,,,,,,,,,,,,,,Eclipse,2,24,Female,Hispanic/Latino,,2024-12-12_17h25.11.455,dissANT,2023.2.3,59.94783339246443,2024-12-12 17h43.46.708912 -0600,
centre.png,incongLeft.png,right,180,,,,,0,0,0,0,0,29,29,22,115.34692989999894,,,,,,,,,,115.33524129999569,115.34692989999894,115.7468544000003,115.73078329999407,0.4,115.73082729999442,115.7468544000003,115.7468544000003,115.84683029999724,116.24715689998993,116.24715689998993,116.24715689998993,116.79949569999008,right,1,0.5396249999903375,None,,,,,,,,,,,,,,,,,,,,,,,,,,,,,,,,,,Eclipse,2,24,Female,Hispanic/Latino,,2024-12-12_17h25.11.455,dissANT,2023.2.3,59.94783339246443,2024-12-12 17h43.46.708912 -0600,
lower.png,incongRight.png,left,180,,,,,0,0,0,0,0,30,30,28,116.81349099999352,,,,,,,,,,116.800888999991,116.81349099999352,117.36342129998957,117.34869409998646,0.55,117.34875809999357,117.36342129998957,117.36342129998957,117.46343629999319,117.86350089999905,117.86350089999905,117.86350089999905,118.35138899998856,left,1,0.48366230000101496,None,,,,,,,,,,,,,,,,,,,,,,,,,,,,,,,,,,Eclipse,2,24,Female,Hispanic/Latino,,2024-12-12_17h25.11.455,dissANT,2023.2.3,59.94783339246443,2024-12-12 17h43.46.708912 -0600,
lower.png,neutralRight.png,left,180,,,,,0,0,0,0,0,31,31,44,118.3634127999976,,,,,,,,,,118.35321879999537,118.3634127999976,118.81321899998875,118.79698489999282,0.45,118.79701650000061,118.81321899998875,118.81321899998875,118.91293479999877,119.29668569999922,119.29668569999922,119.31270739999309,119.73281859999406,left,1,0.4226576999935787,None,,,,,,,,,,,,,,,,,,,,,,,,,,,,,,,,,,Eclipse,2,24,Female,Hispanic/Latino,,2024-12-12_17h25.11.455,dissANT,2023.2.3,59.94783339246443,2024-12-12 17h43.46.708912 -0600,
blank.png,incongRight.png,left,180,,,,,0,0,0,0,0,32,32,31,119.74689229999785,,,,,,,,,,119.73449429999164,119.74689229999785,120.14655739998852,120.13220870000077,0.4,120.13228700000036,120.14655739998852,120.14655739998852,120.24680169999192,120.64680419999058,120.64680419999058,120.64680419999058,121.06411419999495,left,1,0.41198840001015924,None,,,,,,,,,,,,,,,,,,,,,,,,,,,,,,,,,,Eclipse,2,24,Female,Hispanic/Latino,,2024-12-12_17h25.11.455,dissANT,2023.2.3,59.94783339246443,2024-12-12 17h43.46.708912 -0600,
blank.png,congRight.png,right,0,,,,,0,0,0,0,0,33,33,11,121.07973739999579,,,,,,,,,,121.06503819998761,121.07973739999579,121.57998799999768,121.56512199999997,0.5,121.5651865999971,121.57998799999768,121.57998799999768,121.67988809999952,122.07972789999621,122.07972789999621,122.07972789999621,122.56716389999201,right,1,0.4839714000117965,None,,,,,,,,,,,,,,,,,,,,,,,,,,,,,,,,,,Eclipse,2,24,Female,Hispanic/Latino,,2024-12-12_17h25.11.455,dissANT,2023.2.3,59.94783339246443,2024-12-12 17h43.46.708912 -0600,
centre.png,neutralLeft.png,right,180,,,,,0,0,0,0,0,34,34,38,122.5801810999983,,,,,,,,,,122.56849890000012,122.5801810999983,123.02989909998723,123.01524289998633,0.45,123.01531939998677,123.02989909998723,123.02989909998723,123.13019469998835,123.53033599999617,123.53033599999617,123.53033599999617,124.08354799999506,right,1,0.5401822999992874,None,,,,,,,,,,,,,,,,,,,,,,,,,,,,,,,,,,Eclipse,2,24,Female,Hispanic/Latino,,2024-12-12_17h25.11.455,dissANT,2023.2.3,59.94783339246443,2024-12-12 17h43.46.708912 -0600,
centre.png,congLeft.png,left,0,,,,,0,0,0,0,0,35,35,2,124.09615379999741,,,,,,,,,,124.08555739998701,124.09615379999741,124.64637799999036,124.63126159999229,0.55,124.63132159999805,124.64637799999036,124.64637799999036,124.74671789999411,125.14642759998969,125.14642759998969,125.14642759998969,125.58055879999301,left,1,0.42156239999167155,None,,,,,,,,,,,,,,,,,,,,,,,,,,,,,,,,,,Eclipse,2,24,Female,Hispanic/Latino,,2024-12-12_17h25.11.455,dissANT,2023.2.3,59.94783339246443,2024-12-12 17h43.46.708912 -0600,
centre.png,congRight.png,left,180,,,,,0,0,0,0,0,36,36,14,125.59668819999206,,,,,,,,,,125.58158790000016,125.59668819999206,126.14623989998654,126.13030559998879,0.55,126.13034019999031,126.14623989998654,126.14623989998654,126.24671099999978,126.6295312000002,126.6295312000002,126.64623809998739,127.05029099999228,left,1,0.4165900999942096,None,,,,,,,,,,,,,,,,,,,,,,,,,,,,,,,,,,Eclipse,2,24,Female,Hispanic/Latino,,2024-12-12_17h25.11.455,dissANT,2023.2.3,59.94783339246443,2024-12-12 17h43.46.708912 -0600,
both.png,neutralRight.png,right,0,,,,,0,0,0,0,0,37,37,41,127.06313009999576,,,,,,,,,,127.05215939998743,127.06313009999576,127.56321959999332,127.5485262999864,0.5,127.54860099998768,127.56321959999332,127.56321959999332,127.66282489999139,128.06323819998943,128.06323819998943,128.06323819998943,128.66634549999435,right,1,0.5859964999981457,None,,,,,,,,,,,,,,,,,,,,,,,,,,,,,,,,,,Eclipse,2,24,Female,Hispanic/Latino,,2024-12-12_17h25.11.455,dissANT,2023.2.3,59.94783339246443,2024-12-12 17h43.46.708912 -0600,
upper.png,incongLeft.png,left,0,,,,,0,0,0,0,0,38,38,16,128.68013619999692,,,,,,,,,,128.66823459998704,128.68013619999692,129.07992969999032,129.0649284999963,0.4,129.06497979999403,129.07992969999032,129.07992969999032,129.17974649999815,129.5798894999898,129.5798894999898,129.5798894999898,130.09911029999785,left,1,0.5154340000008233,None,,,,,,,,,,,,,,,,,,,,,,,,,,,,,,,,,,Eclipse,2,24,Female,Hispanic/Latino,,2024-12-12_17h25.11.455,dissANT,2023.2.3,59.94783339246443,2024-12-12 17h43.46.708912 -0600,
blank.png,incongLeft.png,left,0,,,,,0,0,0,0,0,39,39,19,130.11307059999672,,,,,,,,,,130.1005521999905,130.11307059999672,130.61319699999876,130.5984036999871,0.5,130.5984685000003,130.61319699999876,130.61319699999876,130.7131573999941,131.11314649999258,131.11314649999258,131.11314649999258,131.51474059998873,left,1,0.3974531999992905,None,,,,,,,,,,,,,,,,,,,,,,,,,,,,,,,,,,Eclipse,2,24,Female,Hispanic/Latino,,2024-12-12_17h25.11.455,dissANT,2023.2.3,59.94783339246443,2024-12-12 17h43.46.708912 -0600,
lower.png,congLeft.png,right,180,,,,,0,0,0,0,0,40,40,4,131.5298393999983,,,,,,,,,,131.51609269999608,131.5298393999983,131.97957389999647,131.96549859999504,0.45,131.96558509999886,131.97957389999647,131.97957389999647,132.07978519999597,132.48015309999755,132.48015309999755,132.48015309999755,132.96521139999095,right,1,0.47889340000983793,None,,,,,,,,,,,,,,,,,,,,,,,,,,,,,,,,,,Eclipse,2,24,Female,Hispanic/Latino,,2024-12-12_17h25.11.455,dissANT,2023.2.3,59.94783339246443,2024-12-12 17h43.46.708912 -0600,
both.png,congLeft.png,right,180,,,,,0,0,0,0,0,41,41,5,132.97976609999023,,,,,,,,,,132.96654389999458,132.97976609999023,133.42955699999584,133.4127567999967,0.45,133.41277219999756,133.42955699999584,133.42955699999584,133.53005849999317,133.91313489999447,133.91313489999447,133.92928249998658,134.3151807999966,right,1,0.3976894999941578,None,,,,,,,,,,,,,,,,,,,,,,,,,,,,,,,,,,Eclipse,2,24,Female,Hispanic/Latino,,2024-12-12_17h25.11.455,dissANT,2023.2.3,59.94783339246443,2024-12-12 17h43.46.708912 -0600,
centre.png,neutralLeft.png,left,0,,,,,0,0,0,0,0,42,42,34,134.32979979999072,,,,,,,,,,134.3164601999888,134.32979979999072,134.87961779999023,134.86451349999697,0.55,134.86458859998675,134.87961779999023,134.87961779999023,134.9795266999863,135.37968379999802,135.37968379999802,135.37968379999802,135.7829359999887,left,1,0.38554190000286326,None,,,,,,,,,,,,,,,,,,,,,,,,,,,,,,,,,,Eclipse,2,24,Female,Hispanic/Latino,,2024-12-12_17h25.11.455,dissANT,2023.2.3,59.94783339246443,2024-12-12 17h43.46.708912 -0600,
lower.png,incongLeft.png,right,180,,,,,0,0,0,0,0,43,43,20,135.79630419999012,,,,,,,,,,135.78481239998655,135.79630419999012,136.3463189999893,136.33147589999135,0.55,136.33153859998856,136.3463189999893,136.3463189999893,136.44631949999894,136.84638189998805,136.84638189998805,136.84638189998805,137.2465119999979,left,0,0.38860099999874365,None,,,,,,,,,,,,,,,,,,,,,,,,,,,,,,,,,,Eclipse,2,24,Female,Hispanic/Latino,,2024-12-12_17h25.11.455,dissANT,2023.2.3,59.94783339246443,2024-12-12 17h43.46.708912 -0600,
both.png,congLeft.png,left,0,,,,,0,0,0,0,0,44,44,1,137.26237789999868,,,,,,,,,,137.2470636999933,137.26237789999868,137.81261470000027,137.79804349999176,0.55,137.79810099999304,137.81261470000027,137.81261470000027,137.91305920000013,138.31283469998743,138.31283469998743,138.31283469998743,138.76589489998878,left,1,0.4351494000002276,None,,,,,,,,,,,,,,,,,,,,,,,,,,,,,,,,,,Eclipse,2,24,Female,Hispanic/Latino,,2024-12-12_17h25.11.455,dissANT,2023.2.3,59.94783339246443,2024-12-12 17h43.46.708912 -0600,
upper.png,incongRight.png,right,0,,,,,0,0,0,0,0,45,45,24,138.77959890000056,,,,,,,,,,138.767651999995,138.77959890000056,139.32923099999607,139.3146085999906,0.55,139.31468539999332,139.32923099999607,139.32923099999607,139.42986309999833,139.8296665999951,139.8296665999951,139.8296665999951,140.43125219999638,right,1,0.5954649000050267,None,,,,,,,,,,,,,,,,,,,,,,,,,,,,,,,,,,Eclipse,2,24,Female,Hispanic/Latino,,2024-12-12_17h25.11.455,dissANT,2023.2.3,59.94783339246443,2024-12-12 17h43.46.708912 -0600,
upper.png,neutralLeft.png,left,0,,,,,0,0,0,0,0,46,46,32,140.44631590000063,,,,,,,,,,140.432559199995,140.44631590000063,140.99611509998795,140.9816984999925,0.55,140.98178439999174,140.99611509998795,140.99611509998795,141.09648899998865,141.4965424999973,141.4965424999973,141.4965424999973,141.91544989999966,left,1,0.403534099998069,None,,,,,,,,,,,,,,,,,,,,,,,,,,,,,,,,,,Eclipse,2,24,Female,Hispanic/Latino,,2024-12-12_17h25.11.455,dissANT,2023.2.3,59.94783339246443,2024-12-12 17h43.46.708912 -0600,
blank.png,incongRight.png,right,0,,,,,0,0,0,0,0,47,47,27,141.92944759999227,,,,,,,,,,141.9170996999892,141.92944759999227,142.3795647999941,142.36493519999203,0.45,142.3650048999989,142.3795647999941,142.3795647999941,142.47949149999477,142.87970809999388,142.87970809999388,142.87970809999388,143.43156449998787,right,1,0.5462586999929044,None,,,,,,,,,,,,,,,,,,,,,,,,,,,,,,,,,,Eclipse,2,24,Female,Hispanic/Latino,,2024-12-12_17h25.11.455,dissANT,2023.2.3,59.94783339246443,2024-12-12 17h43.46.708912 -0600,
both.png,congRight.png,right,0,,,,,0,0,0,0,1,0,48,9,143.44615119999798,,,,,,,,,,143.43296629999531,143.44615119999798,143.99599630000012,143.98083529999712,0.55,143.98089799999434,143.99599630000012,143.99599630000012,144.09628379999776,144.49621889999253,144.49621889999253,144.49621889999253,144.96449009999924,right,1,0.4637662999884924,None,,,,,,,,,,,,,,,,,,,,,,,,,,,,,,,,,,Eclipse,2,24,Female,Hispanic/Latino,,2024-12-12_17h25.11.455,dissANT,2023.2.3,59.94783339246443,2024-12-12 17h43.46.708912 -0600,
both.png,incongLeft.png,left,0,,,,,0,0,0,0,1,1,49,17,144.97953620000044,,,,,,,,,,144.9657123999932,144.97953620000044,145.52913459998672,145.51472949999152,0.55,145.51481569999305,145.52913459998672,145.52913459998672,145.62964419998752,146.02966909999668,146.02966909999668,146.02966909999668,146.46332419999817,left,1,0.42663119999633636,None,,,,,,,,,,,,,,,,,,,,,,,,,,,,,,,,,,Eclipse,2,24,Female,Hispanic/Latino,,2024-12-12_17h25.11.455,dissANT,2023.2.3,59.94783339246443,2024-12-12 17h43.46.708912 -0600,
both.png,neutralLeft.png,left,0,,,,,0,0,0,0,1,2,50,33,146.4788305999973,,,,,,,,,,146.46436919999542,146.4788305999973,146.97892519999004,146.96346349999658,0.5,146.9635239999916,146.97892519999004,146.97892519999004,147.07946029999584,147.4628539999976,147.4628539999976,147.4796931999881,147.86347849998856,left,1,0.39006189999054186,None,,,,,,,,,,,,,,,,,,,,,,,,,,,,,,,,,,Eclipse,2,24,Female,Hispanic/Latino,,2024-12-12_17h25.11.455,dissANT,2023.2.3,59.94783339246443,2024-12-12 17h43.46.708912 -0600,
lower.png,incongRight.png,left,180,,,,,0,0,0,0,1,3,51,28,147.879222699994,,,,,,,,,,147.8646607999981,147.879222699994,148.27916529998765,148.2631737999909,0.4,148.2632084999932,148.27916529998765,148.27916529998765,148.3790006999916,148.7625754999899,148.7625754999899,148.7795097999915,149.1989723000006,right,0,0.4282849000010174,None,,,,,,,,,,,,,,,,,,,,,,,,,,,,,,,,,,Eclipse,2,24,Female,Hispanic/Latino,,2024-12-12_17h25.11.455,dissANT,2023.2.3,59.94783339246443,2024-12-12 17h43.46.708912 -0600,
centre.png,congRight.png,left,180,,,,,0,0,0,0,1,4,52,14,149.21282329999667,,,,,,,,,,149.20072499998787,149.21282329999667,149.7125001999957,149.69828430000052,0.5,149.69837069998903,149.7125001999957,149.7125001999957,149.8126440999913,150.21269859999302,150.21269859999302,150.21269859999302,150.6651225999958,left,1,0.44937290000962093,None,,,,,,,,,,,,,,,,,,,,,,,,,,,,,,,,,,Eclipse,2,24,Female,Hispanic/Latino,,2024-12-12_17h25.11.455,dissANT,2023.2.3,59.94783339246443,2024-12-12 17h43.46.708912 -0600,
blank.png,neutralRight.png,left,180,,,,,0,0,0,0,1,5,53,47,150.6793093999877,,,,,,,,,,150.66670869999507,150.6793093999877,151.22894339999766,151.2129336999933,0.55,151.21297489998688,151.22894339999766,151.22894339999766,151.32860239999718,151.71217149999575,151.71217149999575,151.72887159998936,152.11331789998803,left,1,0.40014159999554977,None,,,,,,,,,,,,,,,,,,,,,,,,,,,,,,,,,,Eclipse,2,24,Female,Hispanic/Latino,,2024-12-12_17h25.11.455,dissANT,2023.2.3,59.94783339246443,2024-12-12 17h43.46.708912 -0600,
upper.png,congLeft.png,left,0,,,,,0,0,0,0,1,6,54,0,152.12877049999952,,,,,,,,,,152.11377979999816,152.12877049999952,152.6788952999923,152.66379089999828,0.55,152.66382839999278,152.6788952999923,152.6788952999923,152.77919689999544,153.17939119999937,153.17939119999937,153.17939119999937,153.58188489999156,left,1,0.3939468000025954,None,,,,,,,,,,,,,,,,,,,,,,,,,,,,,,,,,,Eclipse,2,24,Female,Hispanic/Latino,,2024-12-12_17h25.11.455,dissANT,2023.2.3,59.94783339246443,2024-12-12 17h43.46.708912 -0600,
lower.png,incongLeft.png,right,180,,,,,0,0,0,0,1,7,55,20,153.59554349999235,,,,,,,,,,153.58342689998972,153.59554349999235,154.14577459999418,154.13098949998675,0.55,154.13105159999395,154.14577459999418,154.14577459999418,154.24530739999318,154.64589409998734,154.64589409998734,154.64589409998734,155.18076199998904,right,1,0.5182801999908406,None,,,,,,,,,,,,,,,,,,,,,,,,,,,,,,,,,,Eclipse,2,24,Female,Hispanic/Latino,,2024-12-12_17h25.11.455,dissANT,2023.2.3,59.94783339246443,2024-12-12 17h43.46.708912 -0600,
centre.png,incongRight.png,left,180,,,,,0,0,0,0,1,8,56,30,155.19609519999358,,,,,,,,,,155.18205009998928,155.19609519999358,155.69575809998787,155.6808361000003,0.5,155.68089749998762,155.69575809998787,155.69575809998787,155.79590259998804,156.19592629998806,156.19592629998806,156.19592629998806,156.6624895999994,left,1,0.46108550000644755,None,,,,,,,,,,,,,,,,,,,,,,,,,,,,,,,,,,Eclipse,2,24,Female,Hispanic/Latino,,2024-12-12_17h25.11.455,dissANT,2023.2.3,59.94783339246443,2024-12-12 17h43.46.708912 -0600,
lower.png,congRight.png,left,180,,,,,0,0,0,0,1,9,57,12,156.67853629999445,,,,,,,,,,156.66280179999012,156.67853629999445,157.22932759999821,157.21420979998948,0.55,157.214281499997,157.22932759999821,157.22932759999821,157.32918879999488,157.7290026999981,157.7290026999981,157.7290026999981,158.0830730999878,left,1,0.3487366000044858,None,,,,,,,,,,,,,,,,,,,,,,,,,,,,,,,,,,Eclipse,2,24,Female,Hispanic/Latino,,2024-12-12_17h25.11.455,dissANT,2023.2.3,59.94783339246443,2024-12-12 17h43.46.708912 -0600,
both.png,congLeft.png,left,0,,,,,0,0,0,0,1,10,58,1,158.09576829998696,,,,,,,,,,158.08510899999237,158.09576829998696,158.49541129999852,158.48023619999003,0.4,158.48029259999748,158.49541129999852,158.49541129999852,158.5958188999939,158.9951885999908,158.9951885999908,158.9951885999908,159.47967749999953,left,1,0.4719162000110373,None,,,,,,,,,,,,,,,,,,,,,,,,,,,,,,,,,,Eclipse,2,24,Female,Hispanic/Latino,,2024-12-12_17h25.11.455,dissANT,2023.2.3,59.94783339246443,2024-12-12 17h43.46.708912 -0600,
lower.png,neutralLeft.png,right,180,,,,,0,0,0,0,1,11,59,36,159.4955678999977,,,,,,,,,,159.48058409999066,159.4955678999977,159.9455969999981,159.93105079999077,0.45,159.93111849999696,159.9455969999981,159.9455969999981,160.0457488999964,160.44579109999177,160.44579109999177,160.44579109999177,160.96544960000028,right,1,0.5068252999917604,None,,,,,,,,,,,,,,,,,,,,,,,,,,,,,,,,,,Eclipse,2,24,Female,Hispanic/Latino,,2024-12-12_17h25.11.455,dissANT,2023.2.3,59.94783339246443,2024-12-12 17h43.46.708912 -0600,
both.png,incongLeft.png,right,180,,,,,0,0,0,0,1,12,60,21,160.97891569999047,,,,,,,,,,160.96739089999755,160.97891569999047,161.37894609999785,161.36476240000047,0.4,161.36484879998898,161.37894609999785,161.37894609999785,161.47923669999,161.8793605999963,161.8793605999963,161.8793605999963,162.26522759998625,left,0,0.3712004999979399,None,,,,,,,,,,,,,,,,,,,,,,,,,,,,,,,,,,Eclipse,2,24,Female,Hispanic/Latino,,2024-12-12_17h25.11.455,dissANT,2023.2.3,59.94783339246443,2024-12-12 17h43.46.708912 -0600,
centre.png,incongRight.png,right,0,,,,,0,0,0,0,1,13,61,26,162.27917199999501,,,,,,,,,,162.26695689999906,162.27917199999501,162.67887089999567,162.66367529999116,0.4,162.6637381999899,162.67887089999567,162.67887089999567,162.77898239999195,163.17923199999495,163.17923199999495,163.17923199999495,163.8148102999985,right,1,0.6241597000043839,None,,,,,,,,,,,,,,,,,,,,,,,,,,,,,,,,,,Eclipse,2,24,Female,Hispanic/Latino,,2024-12-12_17h25.11.455,dissANT,2023.2.3,59.94783339246443,2024-12-12 17h43.46.708912 -0600,
blank.png,congLeft.png,right,180,,,,,0,0,0,0,1,14,62,7,163.82899529999122,,,,,,,,,,163.81630349998886,163.82899529999122,164.2288292999874,164.21427479998965,0.4,164.21434459999728,164.2288292999874,164.2288292999874,164.32905989998835,164.72906769999827,164.72906769999827,164.72906769999827,165.1649974999891,right,1,0.4177897999907145,None,,,,,,,,,,,,,,,,,,,,,,,,,,,,,,,,,,Eclipse,2,24,Female,Hispanic/Latino,,2024-12-12_17h25.11.455,dissANT,2023.2.3,59.94783339246443,2024-12-12 17h43.46.708912 -0600,
centre.png,congRight.png,right,0,,,,,0,0,0,0,1,15,63,10,165.1790573999897,,,,,,,,,,165.16678749999846,165.1790573999897,165.57870099999127,165.56389079999644,0.4,165.56394739999087,165.57870099999127,165.57870099999127,165.67881639998814,166.07883289999154,166.07883289999154,166.07883289999154,166.499568299987,right,1,0.4135083000001032,None,,,,,,,,,,,,,,,,,,,,,,,,,,,,,,,,,,Eclipse,2,24,Female,Hispanic/Latino,,2024-12-12_17h25.11.455,dissANT,2023.2.3,59.94783339246443,2024-12-12 17h43.46.708912 -0600,
lower.png,neutralRight.png,left,180,,,,,0,0,0,0,1,16,64,44,166.5122083999886,,,,,,,,,,166.50150589999976,166.5122083999886,167.01230909999867,166.99718279999797,0.5,166.99724539999443,167.01230909999867,167.01230909999867,167.11202689999482,167.5122776999924,167.5122776999924,167.5122776999924,167.96531709999545,left,1,0.440851899998961,None,,,,,,,,,,,,,,,,,,,,,,,,,,,,,,,,,,Eclipse,2,24,Female,Hispanic/Latino,,2024-12-12_17h25.11.455,dissANT,2023.2.3,59.94783339246443,2024-12-12 17h43.46.708912 -0600,
both.png,neutralRight.png,right,0,,,,,0,0,0,0,1,17,65,41,167.97892099998717,,,,,,,,,,167.96712849999312,167.97892099998717,168.429149699994,168.41270289999375,0.45,168.41272909998952,168.429149699994,168.429149699994,168.52888499999244,168.91165639999963,168.91165639999963,168.9282177999994,169.3970980999875,right,1,0.48390829999698326,None,,,,,,,,,,,,,,,,,,,,,,,,,,,,,,,,,,Eclipse,2,24,Female,Hispanic/Latino,,2024-12-12_17h25.11.455,dissANT,2023.2.3,59.94783339246443,2024-12-12 17h43.46.708912 -0600,
both.png,incongRight.png,left,180,,,,,0,0,0,0,1,18,66,29,169.4120901999995,,,,,,,,,,169.39820179999515,169.4120901999995,169.86213719999068,169.84722739999415,0.45,169.84728959998756,169.86213719999068,169.86213719999068,169.9614956000005,170.36207719999948,170.36207719999948,170.36207719999948,170.93184789999214,left,1,0.5541927000012947,None,,,,,,,,,,,,,,,,,,,,,,,,,,,,,,,,,,Eclipse,2,24,Female,Hispanic/Latino,,2024-12-12_17h25.11.455,dissANT,2023.2.3,59.94783339246443,2024-12-12 17h43.46.708912 -0600,
centre.png,congLeft.png,left,0,,,,,0,0,0,0,1,19,67,2,170.94557449998683,,,,,,,,,,170.9336226999876,170.94557449998683,171.39535239999532,171.3805011999939,0.45,171.3805633999873,171.39535239999532,171.39535239999532,171.4953175999981,171.8955939999869,171.8955939999869,171.8955939999869,172.3813250999956,left,1,0.4722724999883212,None,,,,,,,,,,,,,,,,,,,,,,,,,,,,,,,,,,Eclipse,2,24,Female,Hispanic/Latino,,2024-12-12_17h25.11.455,dissANT,2023.2.3,59.94783339246443,2024-12-12 17h43.46.708912 -0600,
lower.png,congLeft.png,right,180,,,,,0,0,0,0,1,20,68,4,172.39547709999897,,,,,,,,,,172.38304929999867,172.39547709999897,172.79513519999455,172.78017559999716,0.4,172.78025589999743,172.79513519999455,172.79513519999455,172.89527719999023,173.29498539998895,173.29498539998895,173.29498539998895,173.7815152999974,right,1,0.47986620001029223,None,,,,,,,,,,,,,,,,,,,,,,,,,,,,,,,,,,Eclipse,2,24,Female,Hispanic/Latino,,2024-12-12_17h25.11.455,dissANT,2023.2.3,59.94783339246443,2024-12-12 17h43.46.708912 -0600,
both.png,incongRight.png,right,0,,,,,0,0,0,0,1,21,69,25,173.79551039999933,,,,,,,,,,173.78318509999372,173.79551039999933,174.24527780000062,174.23072559999127,0.45,174.23081149999052,174.24527780000062,174.24527780000062,174.3453664999979,174.74548979999963,174.74548979999963,174.74548979999963,175.16470499998832,left,0,0.4064726999931736,None,,,,,,,,,,,,,,,,,,,,,,,,,,,,,,,,,,Eclipse,2,24,Female,Hispanic/Latino,,2024-12-12_17h25.11.455,dissANT,2023.2.3,59.94783339246443,2024-12-12 17h43.46.708912 -0600,
upper.png,congRight.png,right,0,,,,,0,0,0,0,1,22,70,8,175.1781556999922,,,,,,,,,,175.16641239999444,175.1781556999922,175.67900229999213,175.66284409999207,0.5,175.66286719999334,175.67900229999213,175.67900229999213,175.77877089999674,176.16215999999258,176.16215999999258,176.1786943999905,176.6480106999952,right,1,0.47420560001046397,None,,,,,,,,,,,,,,,,,,,,,,,,,,,,,,,,,,Eclipse,2,24,Female,Hispanic/Latino,,2024-12-12_17h25.11.455,dissANT,2023.2.3,59.94783339246443,2024-12-12 17h43.46.708912 -0600,
centre.png,congLeft.png,right,180,,,,,0,0,0,0,1,23,71,6,176.66197889999603,,,,,,,,,,176.64944660000037,176.66197889999603,177.16198189998977,177.1468337999977,0.5,177.1468845999916,177.16198189998977,177.16198189998977,177.26137349999044,177.66180869999516,177.66180869999516,177.66180869999516,178.16402549999475,right,1,0.49175990000367165,None,,,,,,,,,,,,,,,,,,,,,,,,,,,,,,,,,,Eclipse,2,24,Female,Hispanic/Latino,,2024-12-12_17h25.11.455,dissANT,2023.2.3,59.94783339246443,2024-12-12 17h43.46.708912 -0600,
upper.png,incongRight.png,right,0,,,,,0,0,0,0,1,24,72,24,178.17860400000063,,,,,,,,,,178.1654448999907,178.17860400000063,178.72852959999,178.71413979999488,0.55,178.7142157999915,178.72852959999,178.72852959999,178.82799219999288,179.22879719999037,179.22879719999037,179.22879719999037,179.61224329999823,left,0,0.37611029999970924,None,,,,,,,,,,,,,,,,,,,,,,,,,,,,,,,,,,Eclipse,2,24,Female,Hispanic/Latino,,2024-12-12_17h25.11.455,dissANT,2023.2.3,59.94783339246443,2024-12-12 17h43.46.708912 -0600,
blank.png,neutralRight.png,right,0,,,,,0,0,0,0,1,25,73,43,179.62794129998656,,,,,,,,,,179.6130800999963,179.62794129998656,180.12834289998864,180.11362939998799,0.5,180.11370589998842,180.12834289998864,180.12834289998864,180.22869319999882,180.62822509999387,180.62822509999387,180.62822509999387,181.1285640999995,right,1,0.4876889000006486,None,,,,,,,,,,,,,,,,,,,,,,,,,,,,,,,,,,Eclipse,2,24,Female,Hispanic/Latino,,2024-12-12_17h25.11.455,dissANT,2023.2.3,59.94783339246443,2024-12-12 17h43.46.708912 -0600,
upper.png,incongLeft.png,left,0,,,,,0,0,0,0,1,26,74,16,181.1445890999894,,,,,,,,,,181.12906179999118,181.1445890999894,181.54507469999953,181.53021629998693,0.4,181.53027909999946,181.54507469999953,181.54507469999953,181.64523069999996,182.04538659998798,182.04538659998798,182.04538659998798,182.5306763999979,left,1,0.46875890000956133,None,,,,,,,,,,,,,,,,,,,,,,,,,,,,,,,,,,Eclipse,2,24,Female,Hispanic/Latino,,2024-12-12_17h25.11.455,dissANT,2023.2.3,59.94783339246443,2024-12-12 17h43.46.708912 -0600,
both.png,neutralLeft.png,right,180,,,,,0,0,0,0,1,27,75,37,182.5451621999964,,,,,,,,,,182.5320389999979,182.5451621999964,183.09512499999255,183.08007549999456,0.55,183.0801383999933,183.09512499999255,183.09512499999255,183.19488830000046,183.5953654999903,183.5953654999903,183.5953654999903,184.16460389998974,right,1,0.5650728000036906,None,,,,,,,,,,,,,,,,,,,,,,,,,,,,,,,,,,Eclipse,2,24,Female,Hispanic/Latino,,2024-12-12_17h25.11.455,dissANT,2023.2.3,59.94783339246443,2024-12-12 17h43.46.708912 -0600,
centre.png,neutralLeft.png,left,0,,,,,0,0,0,0,1,28,76,34,184.17804349999642,,,,,,,,,,184.1663661999919,184.17804349999642,184.5780056999938,184.5644789999933,0.4,184.5645666999917,184.5780056999938,184.5780056999938,184.67831889999798,185.07839769999555,185.07839769999555,185.07839769999555,185.59953269999824,left,1,0.5169490999978734,None,,,,,,,,,,,,,,,,,,,,,,,,,,,,,,,,,,Eclipse,2,24,Female,Hispanic/Latino,,2024-12-12_17h25.11.455,dissANT,2023.2.3,59.94783339246443,2024-12-12 17h43.46.708912 -0600,
both.png,congRight.png,left,180,,,,,0,0,0,0,1,29,77,13,185.61159639999096,,,,,,,,,,185.6010580999864,185.61159639999096,186.01150969999435,185.99680569999327,0.4,185.99688089999836,186.01150969999435,186.01150969999435,186.11156539998774,186.51169089999166,186.51169089999166,186.51169089999166,187.24732949999452,left,1,0.7253081999951974,None,,,,,,,,,,,,,,,,,,,,,,,,,,,,,,,,,,Eclipse,2,24,Female,Hispanic/Latino,,2024-12-12_17h25.11.455,dissANT,2023.2.3,59.94783339246443,2024-12-12 17h43.46.708912 -0600,
blank.png,congLeft.png,left,0,,,,,0,0,0,0,1,30,78,3,187.26157429999148,,,,,,,,,,187.24910189998627,187.26157429999148,187.66168729998753,187.64689720000024,0.4,187.64694889998646,187.66168729998753,187.66168729998753,187.76171589999285,188.16170359999523,188.16170359999523,188.16170359999523,188.6981889999879,left,1,0.5202876999974251,None,,,,,,,,,,,,,,,,,,,,,,,,,,,,,,,,,,Eclipse,2,24,Female,Hispanic/Latino,,2024-12-12_17h25.11.455,dissANT,2023.2.3,59.94783339246443,2024-12-12 17h43.46.708912 -0600,
blank.png,neutralLeft.png,right,180,,,,,0,0,0,0,1,31,79,39,188.71166279999306,,,,,,,,,,188.70016729999043,188.71166279999306,189.16161089998786,189.14779759998783,0.45,189.1478783999919,189.16161089998786,189.16161089998786,189.261236499995,189.66169859998627,189.66169859998627,189.66169859998627,190.18105079999077,right,1,0.5117415999993682,None,,,,,,,,,,,,,,,,,,,,,,,,,,,,,,,,,,Eclipse,2,24,Female,Hispanic/Latino,,2024-12-12_17h25.11.455,dissANT,2023.2.3,59.94783339246443,2024-12-12 17h43.46.708912 -0600,
both.png,neutralRight.png,left,180,,,,,0,0,0,0,1,32,80,45,190.19497219999903,,,,,,,,,,190.18284889998904,190.19497219999903,190.64491909999924,190.6299372999929,0.45,190.6299994999863,190.64491909999924,190.64491909999924,190.74496919999365,191.14497889998893,191.14497889998893,191.14497889998893,191.56491059999098,left,1,0.4165060999948764,None,,,,,,,,,,,,,,,,,,,,,,,,,,,,,,,,,,Eclipse,2,24,Female,Hispanic/Latino,,2024-12-12_17h25.11.455,dissANT,2023.2.3,59.94783339246443,2024-12-12 17h43.46.708912 -0600,
blank.png,incongLeft.png,right,180,,,,,0,0,0,0,1,33,81,23,191.5782779999863,,,,,,,,,,191.56625689999782,191.5782779999863,192.07805769999686,192.06336539999756,0.5,192.06343249999918,192.07805769999686,192.07805769999686,192.17825449998782,192.57842829999572,192.57842829999572,192.57842829999572,193.19758049999655,right,1,0.6035868000035407,None,,,,,,,,,,,,,,,,,,,,,,,,,,,,,,,,,,Eclipse,2,24,Female,Hispanic/Latino,,2024-12-12_17h25.11.455,dissANT,2023.2.3,59.94783339246443,2024-12-12 17h43.46.708912 -0600,
upper.png,neutralLeft.png,left,0,,,,,0,0,0,0,1,34,82,32,193.21146239999507,,,,,,,,,,193.1993470999878,193.21146239999507,193.71119279999402,193.69683219998842,0.5,193.69690439999977,193.71119279999402,193.71119279999402,193.81133979999868,194.21150379999017,194.21150379999017,194.21150379999017,194.812711999999,left,1,0.592174299992621,None,,,,,,,,,,,,,,,,,,,,,,,,,,,,,,,,,,Eclipse,2,24,Female,Hispanic/Latino,,2024-12-12_17h25.11.455,dissANT,2023.2.3,59.94783339246443,2024-12-12 17h43.46.708912 -0600,
centre.png,neutralLeft.png,right,180,,,,,0,0,0,0,1,35,83,38,194.82814769999823,,,,,,,,,,194.81392979998782,194.82814769999823,195.278244599991,195.26328669999202,0.45,195.26335649999965,195.278244599991,195.278244599991,195.378077699992,195.77815030000056,195.77815030000056,195.77815030000056,196.21341499999107,right,1,0.4259428000077605,None,,,,,,,,,,,,,,,,,,,,,,,,,,,,,,,,,,Eclipse,2,24,Female,Hispanic/Latino,,2024-12-12_17h25.11.455,dissANT,2023.2.3,59.94783339246443,2024-12-12 17h43.46.708912 -0600,
centre.png,neutralRight.png,left,180,,,,,0,0,0,0,1,36,84,46,196.22809349998715,,,,,,,,,,196.21493469999405,196.22809349998715,196.77801650000038,196.76296799999545,0.55,196.76302999998734,196.77801650000038,196.77801650000038,196.87821469998744,197.27817869999853,197.27817869999853,197.27817869999853,197.92949949999456,left,1,0.6477239999949234,None,,,,,,,,,,,,,,,,,,,,,,,,,,,,,,,,,,Eclipse,2,24,Female,Hispanic/Latino,,2024-12-12_17h25.11.455,dissANT,2023.2.3,59.94783339246443,2024-12-12 17h43.46.708912 -0600,
both.png,congLeft.png,right,180,,,,,0,0,0,0,1,37,85,5,197.94459259998985,,,,,,,,,,197.93077339998854,197.94459259998985,198.494486399999,198.479946499996,0.55,198.48001400000066,198.494486399999,198.494486399999,198.59465799998725,198.99408689999836,198.99408689999836,198.99408689999836,199.49814699999115,right,1,0.5015313999901991,None,,,,,,,,,,,,,,,,,,,,,,,,,,,,,,,,,,Eclipse,2,24,Female,Hispanic/Latino,,2024-12-12_17h25.11.455,dissANT,2023.2.3,59.94783339246443,2024-12-12 17h43.46.708912 -0600,
centre.png,incongLeft.png,left,0,,,,,0,0,0,0,1,38,86,18,199.51118309999583,,,,,,,,,,199.49919099999534,199.51118309999583,200.01108219999878,199.99698979999812,0.5,199.99706549999246,200.01108219999878,200.01108219999878,200.11128899999312,200.51131489999534,200.51131489999534,200.51131489999534,201.16362149998895,left,1,0.6469745000067633,None,,,,,,,,,,,,,,,,,,,,,,,,,,,,,,,,,,Eclipse,2,24,Female,Hispanic/Latino,,2024-12-12_17h25.11.455,dissANT,2023.2.3,59.94783339246443,2024-12-12 17h43.46.708912 -0600,
blank.png,incongRight.png,left,180,,,,,0,0,0,0,1,39,87,31,201.17786889999115,,,,,,,,,,201.1649502999935,201.17786889999115,201.5778336999938,201.56303679999837,0.4,201.56309939999483,201.5778336999938,201.5778336999938,201.67797289999726,202.07806269999128,202.07806269999128,202.07806269999128,202.61408989998745,left,1,0.5276182999950834,None,,,,,,,,,,,,,,,,,,,,,,,,,,,,,,,,,,Eclipse,2,24,Female,Hispanic/Latino,,2024-12-12_17h25.11.455,dissANT,2023.2.3,59.94783339246443,2024-12-12 17h43.46.708912 -0600,
blank.png,congRight.png,left,180,,,,,0,0,0,0,1,40,88,15,202.62808459998632,,,,,,,,,,202.61574769999424,202.62808459998632,203.1278195999912,203.11274810000032,0.5,203.11280469999474,203.1278195999912,203.1278195999912,203.2280529999989,203.6278930999979,203.6278930999979,203.6278930999979,204.14687319999211,left,1,0.509482300010859,None,,,,,,,,,,,,,,,,,,,,,,,,,,,,,,,,,,Eclipse,2,24,Female,Hispanic/Latino,,2024-12-12_17h25.11.455,dissANT,2023.2.3,59.94783339246443,2024-12-12 17h43.46.708912 -0600,
centre.png,incongLeft.png,right,180,,,,,0,0,0,0,1,41,89,22,204.16099340000073,,,,,,,,,,204.14832699998806,204.16099340000073,204.6610656999983,204.6465707999887,0.5,204.64662339999632,204.6610656999983,204.6610656999983,204.76132479999796,205.16119049998815,205.16119049998815,205.16119049998815,205.76146149999113,right,1,0.5867796999955317,None,,,,,,,,,,,,,,,,,,,,,,,,,,,,,,,,,,Eclipse,2,24,Female,Hispanic/Latino,,2024-12-12_17h25.11.455,dissANT,2023.2.3,59.94783339246443,2024-12-12 17h43.46.708912 -0600,
blank.png,incongRight.png,right,0,,,,,0,0,0,0,1,42,90,27,205.77720909999334,,,,,,,,,,205.76170699999784,205.77720909999334,206.32774609999615,206.31352639998659,0.55,206.3136123999866,206.32774609999615,206.32774609999615,206.42786409999826,206.82794149999972,206.82794149999972,206.82794149999972,207.53075379999063,right,1,0.6966302999935579,None,,,,,,,,,,,,,,,,,,,,,,,,,,,,,,,,,,Eclipse,2,24,Female,Hispanic/Latino,,2024-12-12_17h25.11.455,dissANT,2023.2.3,59.94783339246443,2024-12-12 17h43.46.708912 -0600,
centre.png,neutralRight.png,right,0,,,,,0,0,0,0,1,43,91,42,207.54457079998974,,,,,,,,,,207.53234819999489,207.54457079998974,208.09423709999828,208.0776496999897,0.55,208.0776693999942,208.09423709999828,208.09423709999828,208.19384999999602,208.5777425999986,208.5777425999986,208.59429029999592,209.13065619999543,right,1,0.5373049000045285,None,,,,,,,,,,,,,,,,,,,,,,,,,,,,,,,,,,Eclipse,2,24,Female,Hispanic/Latino,,2024-12-12_17h25.11.455,dissANT,2023.2.3,59.94783339246443,2024-12-12 17h43.46.708912 -0600,
blank.png,congRight.png,right,0,,,,,0,0,0,0,1,44,92,11,209.1440508999949,,,,,,,,,,209.13226539999596,209.1440508999949,209.6940384999907,209.6774471999961,0.55,209.67746179999085,209.6940384999907,209.6940384999907,209.79438039999513,210.17771039999207,210.17771039999207,210.19383749998815,210.5965053999971,right,1,0.4095745000086026,None,,,,,,,,,,,,,,,,,,,,,,,,,,,,,,,,,,Eclipse,2,24,Female,Hispanic/Latino,,2024-12-12_17h25.11.455,dissANT,2023.2.3,59.94783339246443,2024-12-12 17h43.46.708912 -0600,
blank.png,neutralLeft.png,left,0,,,,,0,0,0,0,1,45,93,35,210.61061809999228,,,,,,,,,,210.59798500000034,210.61061809999228,211.1612027999945,211.145875599992,0.55,211.1459324999887,211.1612027999945,211.1612027999945,211.26088089999394,211.6607975999941,211.6607975999941,211.6607975999941,212.23135689999617,left,1,0.5664563999889651,None,,,,,,,,,,,,,,,,,,,,,,,,,,,,,,,,,,Eclipse,2,24,Female,Hispanic/Latino,,2024-12-12_17h25.11.455,dissANT,2023.2.3,59.94783339246443,2024-12-12 17h43.46.708912 -0600,
blank.png,incongLeft.png,left,0,,,,,0,0,0,0,1,46,94,19,212.2443457999907,,,,,,,,,,212.23318329999165,212.2443457999907,212.74414299998898,212.72867909999331,0.5,212.72873499999696,212.74414299998898,212.74414299998898,212.84390889998758,213.24448389999452,213.24448389999452,213.24448389999452,213.8302299999923,left,1,0.5775547000084771,None,,,,,,,,,,,,,,,,,,,,,,,,,,,,,,,,,,Eclipse,2,24,Female,Hispanic/Latino,,2024-12-12_17h25.11.455,dissANT,2023.2.3,59.94783339246443,2024-12-12 17h43.46.708912 -0600,
upper.png,neutralRight.png,right,0,,,,,0,0,0,0,1,47,95,40,213.84416119998787,,,,,,,,,,213.8319072999875,213.84416119998787,214.2941962999903,214.27763969999796,0.45,214.2776526999951,214.2941962999903,214.2941962999903,214.3940222999954,214.77709109999705,214.77709109999705,214.7938465999905,215.3312530999974,right,1,0.536261100001866,None,,,,,,,,,,,,,,,,,,,,,,,,,,,,,,,,,,Eclipse,2,24,Female,Hispanic/Latino,,2024-12-12_17h25.11.455,dissANT,2023.2.3,59.94783339246443,2024-12-12 17h43.46.708912 -0600,
,,,,,,,,0,0,0,0,,,,,,,,,,,,,,,,,,,,,,,,,,,,,,,,,,,,,,,,,,,215.33272749999014,215.34424059999583,215.34424059999583,288.86142389998713,,,,,,,,,,,,,,,,,,,Eclipse,2,24,Female,Hispanic/Latino,,2024-12-12_17h25.11.455,dissANT,2023.2.3,59.94783339246443,2024-12-12 17h43.46.708912 -0600,
centre.png,incongRight.png,right,0,,,,,1,0,1,0,0,0,0,26,288.8836474999989,,,,,,,,,,288.8802904999902,288.8836474999989,289.2918279000005,289.2768275999988,0.4,289.27688829999533,289.2918279000005,289.2918279000005,289.39226659999986,289.7924365999934,289.7924365999934,289.7924365999934,290.3962426999933,right,1,0.6011145999946166,None,,,,,,,,,,,,,,,,,,,,,,,,,,,,,,,,,,Eclipse,2,24,Female,Hispanic/Latino,,2024-12-12_17h25.11.455,dissANT,2023.2.3,59.94783339246443,2024-12-12 17h43.46.708912 -0600,
both.png,congLeft.png,left,0,,,,,1,0,1,0,0,1,1,1,290.4087348999892,,,,,,,,,,290.3985157999996,290.4087348999892,290.8083664000005,290.79377649999515,0.4,290.7938267999998,290.8083664000005,290.8083664000005,290.90902339998866,291.3088987999945,291.3088987999945,291.3088987999945,291.7279290000006,left,1,0.4045386999932816,None,,,,,,,,,,,,,,,,,,,,,,,,,,,,,,,,,,Eclipse,2,24,Female,Hispanic/Latino,,2024-12-12_17h25.11.455,dissANT,2023.2.3,59.94783339246443,2024-12-12 17h43.46.708912 -0600,
both.png,neutralRight.png,right,0,,,,,1,0,1,0,0,2,2,41,291.7422285999928,,,,,,,,,,291.7295434999978,291.7422285999928,292.2921757999866,292.2776057999872,0.55,292.277682999993,292.2921757999866,292.2921757999866,292.3922246999864,292.79234099999303,292.79234099999303,292.79234099999303,293.19484119999106,right,1,0.38877759999013506,None,,,,,,,,,,,,,,,,,,,,,,,,,,,,,,,,,,Eclipse,2,24,Female,Hispanic/Latino,,2024-12-12_17h25.11.455,dissANT,2023.2.3,59.94783339246443,2024-12-12 17h43.46.708912 -0600,
blank.png,congLeft.png,right,180,,,,,1,0,1,0,0,3,3,7,293.2091242999886,,,,,,,,,,293.19594179998967,293.2091242999886,293.7087290999916,293.6919493999885,0.5,293.6919659999985,293.7087290999916,293.7087290999916,293.80853229999775,294.19180109999434,294.19180109999434,294.2085439999937,294.70990729999903,right,1,0.5020771999988938,None,,,,,,,,,,,,,,,,,,,,,,,,,,,,,,,,,,Eclipse,2,24,Female,Hispanic/Latino,,2024-12-12_17h25.11.455,dissANT,2023.2.3,59.94783339246443,2024-12-12 17h43.46.708912 -0600,
upper.png,congLeft.png,left,0,,,,,1,0,1,0,0,4,4,0,294.72476599999936,,,,,,,,,,294.7112249999918,294.72476599999936,295.1253360999981,295.1112138999888,0.4,295.11128949999693,295.1253360999981,295.1253360999981,295.2251499999984,295.625489699989,295.625489699989,295.625489699989,296.0111298999982,left,1,0.37687239999650046,None,,,,,,,,,,,,,,,,,,,,,,,,,,,,,,,,,,Eclipse,2,24,Female,Hispanic/Latino,,2024-12-12_17h25.11.455,dissANT,2023.2.3,59.94783339246443,2024-12-12 17h43.46.708912 -0600,
blank.png,incongRight.png,left,180,,,,,1,0,1,0,0,5,5,31,296.02522709999175,,,,,,,,,,296.0126314999943,296.02522709999175,296.4254254999978,296.41043639999407,0.4,296.4104946999869,296.4254254999978,296.4254254999978,296.52551019999373,296.9256635999918,296.9256635999918,296.9256635999918,297.5444354999927,left,1,0.6057431999943219,None,,,,,,,,,,,,,,,,,,,,,,,,,,,,,,,,,,Eclipse,2,24,Female,Hispanic/Latino,,2024-12-12_17h25.11.455,dissANT,2023.2.3,59.94783339246443,2024-12-12 17h43.46.708912 -0600,
both.png,incongRight.png,right,0,,,,,1,0,1,0,0,6,6,25,297.55861559999175,,,,,,,,,,297.5458037999924,297.55861559999175,298.1086210999929,298.09263519999513,0.55,298.092676699991,298.1086210999929,298.1086210999929,298.20883350000076,298.59186279999267,298.59186279999267,298.6084891999926,299.12588269999833,right,1,0.5187530999974115,None,,,,,,,,,,,,,,,,,,,,,,,,,,,,,,,,,,Eclipse,2,24,Female,Hispanic/Latino,,2024-12-12_17h25.11.455,dissANT,2023.2.3,59.94783339246443,2024-12-12 17h43.46.708912 -0600,
lower.png,neutralLeft.png,right,180,,,,,1,0,1,0,0,7,7,36,299.14169609999226,,,,,,,,,,299.12644959999307,299.14169609999226,299.54218559998844,299.52657550000004,0.4,299.5266348999867,299.54218559998844,299.54218559998844,299.64216449999367,300.0421301999886,300.0421301999886,300.0421301999886,300.5612559999863,right,1,0.5101350000040838,None,,,,,,,,,,,,,,,,,,,,,,,,,,,,,,,,,,Eclipse,2,24,Female,Hispanic/Latino,,2024-12-12_17h25.11.455,dissANT,2023.2.3,59.94783339246443,2024-12-12 17h43.46.708912 -0600,
centre.png,congLeft.png,left,0,,,,,1,0,1,0,0,8,8,2,300.57521359999373,,,,,,,,,,300.5627783999953,300.57521359999373,300.9748976999981,300.9606752999971,0.4,300.96075169999676,300.9748976999981,300.9748976999981,301.0752053999895,301.4751525999891,301.4751525999891,301.4751525999891,301.97778180000023,left,1,0.4882378000038443,None,,,,,,,,,,,,,,,,,,,,,,,,,,,,,,,,,,Eclipse,2,24,Female,Hispanic/Latino,,2024-12-12_17h25.11.455,dissANT,2023.2.3,59.94783339246443,2024-12-12 17h43.46.708912 -0600,
centre.png,incongLeft.png,right,180,,,,,1,0,1,0,0,9,9,22,301.9917911999946,,,,,,,,,,301.9792374999961,301.9917911999946,302.54164379999565,302.5271928999864,0.55,302.5272627999948,302.54164379999565,302.54164379999565,302.6417269999947,303.041928199993,303.041928199993,303.041928199993,303.4277460999874,left,0,0.3812418000015896,None,,,,,,,,,,,,,,,,,,,,,,,,,,,,,,,,,,Eclipse,2,24,Female,Hispanic/Latino,,2024-12-12_17h25.11.455,dissANT,2023.2.3,59.94783339246443,2024-12-12 17h43.46.708912 -0600,
blank.png,congRight.png,left,180,,,,,1,0,1,0,0,10,10,15,303.4418675999914,,,,,,,,,,303.42917540000053,303.4418675999914,303.9920043999882,303.9769230999955,0.55,303.9769847999996,303.9920043999882,303.9920043999882,304.0918299999903,304.4920107999933,304.4920107999933,304.4920107999933,304.9776803999994,left,1,0.47410089999902993,None,,,,,,,,,,,,,,,,,,,,,,,,,,,,,,,,,,Eclipse,2,24,Female,Hispanic/Latino,,2024-12-12_17h25.11.455,dissANT,2023.2.3,59.94783339246443,2024-12-12 17h43.46.708912 -0600,
centre.png,neutralLeft.png,left,0,,,,,1,0,1,0,0,11,11,34,304.99189320000005,,,,,,,,,,304.97913139998855,304.99189320000005,305.3915561999893,305.3758577999979,0.4,305.3758938999963,305.3915561999893,305.3915561999893,305.4920211999997,305.8752652999974,305.8752652999974,305.8920392,306.44467469998926,left,1,0.5622978000028525,None,,,,,,,,,,,,,,,,,,,,,,,,,,,,,,,,,,Eclipse,2,24,Female,Hispanic/Latino,,2024-12-12_17h25.11.455,dissANT,2023.2.3,59.94783339246443,2024-12-12 17h43.46.708912 -0600,
blank.png,incongLeft.png,left,0,,,,,1,0,1,0,0,12,12,19,306.4582573999942,,,,,,,,,,306.44621840000036,306.4582573999942,306.95815509998647,306.94406829999934,0.5,306.94414359999064,306.95815509998647,306.95815509998647,307.0584184999898,307.4585373999871,307.4585373999871,307.4585373999871,307.8956471999991,right,0,0.43356150000181515,None,,,,,,,,,,,,,,,,,,,,,,,,,,,,,,,,,,Eclipse,2,24,Female,Hispanic/Latino,,2024-12-12_17h25.11.455,dissANT,2023.2.3,59.94783339246443,2024-12-12 17h43.46.708912 -0600,
upper.png,neutralRight.png,right,0,,,,,1,0,1,0,0,13,13,40,307.90810839999176,,,,,,,,,,307.8972555999935,307.90810839999176,308.40857369999867,308.39340499999525,0.5,308.3934559999907,308.40857369999867,308.40857369999867,308.508124999993,308.9083982999873,308.9083982999873,308.9083982999873,309.4777755999967,right,1,0.5633232000109274,None,,,,,,,,,,,,,,,,,,,,,,,,,,,,,,,,,,Eclipse,2,24,Female,Hispanic/Latino,,2024-12-12_17h25.11.455,dissANT,2023.2.3,59.94783339246443,2024-12-12 17h43.46.708912 -0600,
centre.png,neutralRight.png,left,180,,,,,1,0,1,0,0,14,14,46,309.49116029999277,,,,,,,,,,309.47960559999046,309.49116029999277,309.94183429999975,309.92680739999923,0.45,309.92686789999425,309.94183429999975,309.94183429999975,310.0416853999923,310.4414617000002,310.4414617000002,310.4414617000002,311.12716539998655,left,1,0.6700131999969017,None,,,,,,,,,,,,,,,,,,,,,,,,,,,,,,,,,,Eclipse,2,24,Female,Hispanic/Latino,,2024-12-12_17h25.11.455,dissANT,2023.2.3,59.94783339246443,2024-12-12 17h43.46.708912 -0600,
blank.png,neutralRight.png,left,180,,,,,1,0,1,0,0,15,15,47,311.141756099998,,,,,,,,,,311.12860149999324,311.141756099998,311.6915238999936,311.676767699988,0.55,311.6768299999967,311.6915238999936,311.6915238999936,311.7917783999874,312.19177529998706,312.19177529998706,312.19177529998706,312.6776913999929,left,1,0.4827765000081854,None,,,,,,,,,,,,,,,,,,,,,,,,,,,,,,,,,,Eclipse,2,24,Female,Hispanic/Latino,,2024-12-12_17h25.11.455,dissANT,2023.2.3,59.94783339246443,2024-12-12 17h43.46.708912 -0600,
upper.png,incongRight.png,right,0,,,,,1,0,1,0,0,16,16,24,312.69168809999246,,,,,,,,,,312.6789940999879,312.69168809999246,313.19178829999873,313.176575999998,0.5,313.17663289999473,313.19178829999873,313.19178829999873,313.2916659999901,313.691805399998,313.691805399998,313.691805399998,314.2415106999979,right,1,0.5461436000041431,None,,,,,,,,,,,,,,,,,,,,,,,,,,,,,,,,,,Eclipse,2,24,Female,Hispanic/Latino,,2024-12-12_17h25.11.455,dissANT,2023.2.3,59.94783339246443,2024-12-12 17h43.46.708912 -0600,
lower.png,neutralRight.png,left,180,,,,,1,0,1,0,0,17,17,44,314.2577033999987,,,,,,,,,,314.2419446999993,314.2577033999987,314.80800199999067,314.79285179999715,0.55,314.7929119999899,314.80800199999067,314.80800199999067,314.90794439999445,315.3084850999876,315.3084850999876,315.3084850999876,315.8276577999932,left,1,0.5063271999970311,None,,,,,,,,,,,,,,,,,,,,,,,,,,,,,,,,,,Eclipse,2,24,Female,Hispanic/Latino,,2024-12-12_17h25.11.455,dissANT,2023.2.3,59.94783339246443,2024-12-12 17h43.46.708912 -0600,
blank.png,neutralRight.png,right,0,,,,,1,0,1,0,0,18,18,43,315.8415504000004,,,,,,,,,,315.8294096999889,315.8415504000004,316.39153739999165,316.3766684999864,0.55,316.37673129999894,316.39153739999165,316.39153739999165,316.4917013999948,316.8914650999941,316.8914650999941,316.8914650999941,317.4103111999866,right,1,0.5099083999957656,None,,,,,,,,,,,,,,,,,,,,,,,,,,,,,,,,,,Eclipse,2,24,Female,Hispanic/Latino,,2024-12-12_17h25.11.455,dissANT,2023.2.3,59.94783339246443,2024-12-12 17h43.46.708912 -0600,
upper.png,incongLeft.png,left,0,,,,,1,0,1,0,0,19,19,16,317.4249359999958,,,,,,,,,,317.41183049998654,317.4249359999958,317.8749846999999,317.8597183999955,0.45,317.8597783999867,317.8749846999999,317.8749846999999,317.97485799998685,318.37446239999554,318.37446239999554,318.37446239999554,318.8602583999891,left,1,0.4811236999958055,None,,,,,,,,,,,,,,,,,,,,,,,,,,,,,,,,,,Eclipse,2,24,Female,Hispanic/Latino,,2024-12-12_17h25.11.455,dissANT,2023.2.3,59.94783339246443,2024-12-12 17h43.46.708912 -0600,
both.png,neutralLeft.png,right,180,,,,,1,0,1,0,0,20,20,37,318.8747357999964,,,,,,,,,,318.8615426999895,318.8747357999964,319.37457309999445,319.35916379999253,0.5,319.3592165999871,319.37457309999445,319.37457309999445,319.47455079999054,319.8748354999989,319.8748354999989,319.8748354999989,320.4105528999935,right,1,0.5323860000062268,None,,,,,,,,,,,,,,,,,,,,,,,,,,,,,,,,,,Eclipse,2,24,Female,Hispanic/Latino,,2024-12-12_17h25.11.455,dissANT,2023.2.3,59.94783339246443,2024-12-12 17h43.46.708912 -0600,
centre.png,congRight.png,left,180,,,,,1,0,1,0,0,21,21,14,320.42473159999645,,,,,,,,,,320.41191779999644,320.42473159999645,320.8743463999999,320.85847069999727,0.45,320.85851719998755,320.8743463999999,320.8743463999999,320.97478779999074,321.3579943999939,321.3579943999939,321.37483699999575,321.9774829999951,left,1,0.6105800999939675,None,,,,,,,,,,,,,,,,,,,,,,,,,,,,,,,,,,Eclipse,2,24,Female,Hispanic/Latino,,2024-12-12_17h25.11.455,dissANT,2023.2.3,59.94783339246443,2024-12-12 17h43.46.708912 -0600,
both.png,neutralRight.png,left,180,,,,,1,0,1,0,0,22,22,45,321.99135909999313,,,,,,,,,,321.9790096999932,321.99135909999313,322.3911506999866,322.3768928999925,0.4,322.37696749999304,322.3911506999866,322.3911506999866,322.49126019999676,322.8916174999904,322.8916174999904,322.8916174999904,323.3605998999992,left,1,0.46046400000341237,None,,,,,,,,,,,,,,,,,,,,,,,,,,,,,,,,,,Eclipse,2,24,Female,Hispanic/Latino,,2024-12-12_17h25.11.455,dissANT,2023.2.3,59.94783339246443,2024-12-12 17h43.46.708912 -0600,
centre.png,congLeft.png,right,180,,,,,1,0,1,0,0,23,23,6,323.3747613999876,,,,,,,,,,323.36206019998644,323.3747613999876,323.92476650000026,323.90960189999896,0.55,323.90965859999415,323.92476650000026,323.92476650000026,324.0244483999995,324.4247988999996,324.4247988999996,324.4247988999996,324.8605428999872,right,1,0.4262461999896914,None,,,,,,,,,,,,,,,,,,,,,,,,,,,,,,,,,,Eclipse,2,24,Female,Hispanic/Latino,,2024-12-12_17h25.11.455,dissANT,2023.2.3,59.94783339246443,2024-12-12 17h43.46.708912 -0600,
lower.png,congRight.png,left,180,,,,,1,0,1,0,0,24,24,12,324.87472569999227,,,,,,,,,,324.8621533999976,324.87472569999227,325.3746639999881,325.35960859998886,0.5,325.3596703999938,325.3746639999881,325.3746639999881,325.4746615999902,325.8748385999934,325.8748385999934,325.8748385999934,326.31062789999123,left,1,0.4216149999992922,None,,,,,,,,,,,,,,,,,,,,,,,,,,,,,,,,,,Eclipse,2,24,Female,Hispanic/Latino,,2024-12-12_17h25.11.455,dissANT,2023.2.3,59.94783339246443,2024-12-12 17h43.46.708912 -0600,
lower.png,incongRight.png,left,180,,,,,1,0,1,0,0,25,25,28,326.32452309998916,,,,,,,,,,326.31221659999574,326.32452309998916,326.82427189999726,326.80838199998834,0.5,326.80841829998826,326.82427189999726,326.82427189999726,326.92473879999307,327.30791289999615,327.30791289999615,327.3246625999891,327.92665389999456,left,1,0.6043868999986444,None,,,,,,,,,,,,,,,,,,,,,,,,,,,,,,,,,,Eclipse,2,24,Female,Hispanic/Latino,,2024-12-12_17h25.11.455,dissANT,2023.2.3,59.94783339246443,2024-12-12 17h43.46.708912 -0600,
both.png,congRight.png,left,180,,,,,1,0,1,0,0,26,26,13,327.9411662999919,,,,,,,,,,327.92827099999704,327.9411662999919,328.34108089999063,328.32660449999094,0.4,328.32668999998714,328.34108089999063,328.34108089999063,328.44062719999056,328.84096479999425,328.84096479999425,328.84096479999425,329.26128519998747,left,1,0.40649439999833703,None,,,,,,,,,,,,,,,,,,,,,,,,,,,,,,,,,,Eclipse,2,24,Female,Hispanic/Latino,,2024-12-12_17h25.11.455,dissANT,2023.2.3,59.94783339246443,2024-12-12 17h43.46.708912 -0600,
blank.png,neutralLeft.png,left,0,,,,,1,0,1,0,0,27,27,35,329.2747068999888,,,,,,,,,,329.262807799998,329.2747068999888,329.77452049999556,329.7581241000007,0.5,329.75816049998684,329.77452049999556,329.77452049999556,329.8741358999978,330.25753829999303,330.25753829999303,330.27393969999684,330.77724060000037,left,1,0.5127021999942372,None,,,,,,,,,,,,,,,,,,,,,,,,,,,,,,,,,,Eclipse,2,24,Female,Hispanic/Latino,,2024-12-12_17h25.11.455,dissANT,2023.2.3,59.94783339246443,2024-12-12 17h43.46.708912 -0600,
both.png,incongLeft.png,left,0,,,,,1,0,1,0,0,28,28,17,330.79063039999164,,,,,,,,,,330.77868409999064,330.79063039999164,331.29096119999303,331.2767906999943,0.5,331.27687609998975,331.29096119999303,331.29096119999303,331.3912120999885,331.7910671999998,331.7910671999998,331.7910671999998,332.310364399993,left,1,0.5144072999974014,None,,,,,,,,,,,,,,,,,,,,,,,,,,,,,,,,,,Eclipse,2,24,Female,Hispanic/Latino,,2024-12-12_17h25.11.455,dissANT,2023.2.3,59.94783339246443,2024-12-12 17h43.46.708912 -0600,
lower.png,incongLeft.png,right,180,,,,,1,0,1,0,0,29,29,20,332.3244277999911,,,,,,,,,,332.311867899989,332.3244277999911,332.77432789999875,332.75949209999817,0.45,332.75956769999175,332.77432789999875,332.77432789999875,332.87396389999776,333.27456329998677,333.27456329998677,333.27456329998677,333.8603876999987,right,1,0.5775584000075469,None,,,,,,,,,,,,,,,,,,,,,,,,,,,,,,,,,,Eclipse,2,24,Female,Hispanic/Latino,,2024-12-12_17h25.11.455,dissANT,2023.2.3,59.94783339246443,2024-12-12 17h43.46.708912 -0600,
blank.png,neutralLeft.png,right,180,,,,,1,0,1,0,0,30,30,39,333.8745348999946,,,,,,,,,,333.8618998999882,333.8745348999946,334.374536599993,334.359689799996,0.5,334.3597747999884,334.374536599993,334.374536599993,334.4741418999911,334.8744866999914,334.8744866999914,334.8744866999914,335.62694499999634,right,1,0.740174600010505,None,,,,,,,,,,,,,,,,,,,,,,,,,,,,,,,,,,Eclipse,2,24,Female,Hispanic/Latino,,2024-12-12_17h25.11.455,dissANT,2023.2.3,59.94783339246443,2024-12-12 17h43.46.708912 -0600,
both.png,incongRight.png,left,180,,,,,1,0,1,0,0,31,31,29,335.640951999987,,,,,,,,,,335.62847939999483,335.640951999987,336.14118880000024,336.12644919999,0.5,336.12651869999536,336.14118880000024,336.14118880000024,336.2410901999974,336.64081259998784,336.64081259998784,336.64081259998784,337.2410766999965,left,1,0.5985871000011684,None,,,,,,,,,,,,,,,,,,,,,,,,,,,,,,,,,,Eclipse,2,24,Female,Hispanic/Latino,,2024-12-12_17h25.11.455,dissANT,2023.2.3,59.94783339246443,2024-12-12 17h43.46.708912 -0600,
upper.png,congRight.png,right,0,,,,,1,0,1,0,0,32,32,8,337.25718129999586,,,,,,,,,,337.2413521999988,337.25718129999586,337.70744269998977,337.69269109999004,0.45,337.6927527999942,337.70744269998977,337.70744269998977,337.80775749999157,338.207594099993,338.207594099993,338.207594099993,338.7774836999888,right,1,0.5644570000004023,None,,,,,,,,,,,,,,,,,,,,,,,,,,,,,,,,,,Eclipse,2,24,Female,Hispanic/Latino,,2024-12-12_17h25.11.455,dissANT,2023.2.3,59.94783339246443,2024-12-12 17h43.46.708912 -0600,
lower.png,congLeft.png,right,180,,,,,1,0,1,0,0,33,33,4,338.79088869999396,,,,,,,,,,338.7788293999911,338.79088869999396,339.2408232999878,339.22572339999897,0.45,339.2257793999888,339.2408232999878,339.2408232999878,339.3409587999922,339.7409645000007,339.7409645000007,339.7409645000007,340.4104474999913,right,1,0.6536438000039198,None,,,,,,,,,,,,,,,,,,,,,,,,,,,,,,,,,,Eclipse,2,24,Female,Hispanic/Latino,,2024-12-12_17h25.11.455,dissANT,2023.2.3,59.94783339246443,2024-12-12 17h43.46.708912 -0600,
blank.png,congRight.png,right,0,,,,,1,0,1,0,0,34,34,11,340.4242898999946,,,,,,,,,,340.4121773999941,340.4242898999946,340.8242227999872,340.8091538000008,0.4,340.8092242999992,340.8242227999872,340.8242227999872,340.9241600999958,341.32436400000006,341.32436400000006,341.32436400000006,341.86124459998973,right,1,0.5234510000009323,None,,,,,,,,,,,,,,,,,,,,,,,,,,,,,,,,,,Eclipse,2,24,Female,Hispanic/Latino,,2024-12-12_17h25.11.455,dissANT,2023.2.3,59.94783339246443,2024-12-12 17h43.46.708912 -0600,
both.png,congLeft.png,right,180,,,,,1,0,1,0,0,35,35,5,341.87408329999016,,,,,,,,,,341.86289019999094,341.87408329999016,342.3742179999972,342.35966539999936,0.5,342.35974239998905,342.3742179999972,342.3742179999972,342.4743529999978,342.87413789999846,342.87413789999846,342.87413789999846,343.3611048999883,right,1,0.4824309999967227,None,,,,,,,,,,,,,,,,,,,,,,,,,,,,,,,,,,Eclipse,2,24,Female,Hispanic/Latino,,2024-12-12_17h25.11.455,dissANT,2023.2.3,59.94783339246443,2024-12-12 17h43.46.708912 -0600,
both.png,incongLeft.png,right,180,,,,,1,0,1,0,0,36,36,21,343.3741798999981,,,,,,,,,,343.3631338999985,343.3741798999981,343.7740974999906,343.759667899998,0.4,343.75974279998627,343.7740974999906,343.7740974999906,343.8742753999977,344.274139199988,344.274139199988,344.274139199988,344.7770320999989,right,1,0.49344330000167247,None,,,,,,,,,,,,,,,,,,,,,,,,,,,,,,,,,,Eclipse,2,24,Female,Hispanic/Latino,,2024-12-12_17h25.11.455,dissANT,2023.2.3,59.94783339246443,2024-12-12 17h43.46.708912 -0600,
blank.png,incongLeft.png,right,180,,,,,1,0,1,0,0,37,37,23,344.7909065999993,,,,,,,,,,344.77860579999106,344.7909065999993,345.190477799988,345.1746390999906,0.4,345.1746829999902,345.190477799988,345.190477799988,345.29075829999056,345.674148399994,345.674148399994,345.6908326999983,346.1435025999963,right,1,0.46612339999410324,None,,,,,,,,,,,,,,,,,,,,,,,,,,,,,,,,,,Eclipse,2,24,Female,Hispanic/Latino,,2024-12-12_17h25.11.455,dissANT,2023.2.3,59.94783339246443,2024-12-12 17h43.46.708912 -0600,
centre.png,neutralRight.png,right,0,,,,,1,0,1,0,0,38,38,42,346.15730919998896,,,,,,,,,,346.1449457999988,346.15730919998896,346.60738560000027,346.59256989999267,0.45,346.5926342999883,346.60738560000027,346.60738560000027,346.70742679999967,347.10727699998824,347.10727699998824,347.10727699998824,347.62623179999355,right,1,0.50209399999585,None,,,,,,,,,,,,,,,,,,,,,,,,,,,,,,,,,,Eclipse,2,24,Female,Hispanic/Latino,,2024-12-12_17h25.11.455,dissANT,2023.2.3,59.94783339246443,2024-12-12 17h43.46.708912 -0600,
centre.png,incongRight.png,left,180,,,,,1,0,1,0,0,39,39,30,347.6409117000003,,,,,,,,,,347.6274008999899,347.6409117000003,348.04043439999805,348.0247815999901,0.4,348.0248236999905,348.04043439999805,348.04043439999805,348.14083389998996,348.52351369999815,348.52351369999815,348.54006970000046,348.9766660999885,right,0,0.4378962000046158,None,,,,,,,,,,,,,,,,,,,,,,,,,,,,,,,,,,Eclipse,2,24,Female,Hispanic/Latino,,2024-12-12_17h25.11.455,dissANT,2023.2.3,59.94783339246443,2024-12-12 17h43.46.708912 -0600,
centre.png,congRight.png,right,0,,,,,1,0,1,0,0,40,40,10,348.9906956999912,,,,,,,,,,348.97823579999385,348.9906956999912,349.54085519998625,349.52603519998956,0.55,349.52610599999025,349.54085519998625,349.54085519998625,349.6404341999878,350.0406690999953,350.0406690999953,350.0406690999953,350.56087789998855,right,1,0.5102722000010544,None,,,,,,,,,,,,,,,,,,,,,,,,,,,,,,,,,,Eclipse,2,24,Female,Hispanic/Latino,,2024-12-12_17h25.11.455,dissANT,2023.2.3,59.94783339246443,2024-12-12 17h43.46.708912 -0600,
both.png,congRight.png,right,0,,,,,1,0,1,0,0,41,41,9,350.57395339998766,,,,,,,,,,350.562878599987,350.57395339998766,351.02392799999507,351.00972619999084,0.45,351.00980049998907,351.02392799999507,351.02392799999507,351.12405859999126,351.52401769999415,351.52401769999415,351.52401769999415,352.04402289999416,right,1,0.5028536000027088,None,,,,,,,,,,,,,,,,,,,,,,,,,,,,,,,,,,Eclipse,2,24,Female,Hispanic/Latino,,2024-12-12_17h25.11.455,dissANT,2023.2.3,59.94783339246443,2024-12-12 17h43.46.708912 -0600,
blank.png,congLeft.png,left,0,,,,,1,0,1,0,0,42,42,3,352.0571876999893,,,,,,,,,,352.0458709999948,352.0571876999893,352.5068339999998,352.49204339999415,0.45,352.49211300000024,352.5068339999998,352.5068339999998,352.6067473000003,353.00699319998967,353.00699319998967,353.00699319998967,353.6102974999958,left,1,0.5950821000005817,None,,,,,,,,,,,,,,,,,,,,,,,,,,,,,,,,,,Eclipse,2,24,Female,Hispanic/Latino,,2024-12-12_17h25.11.455,dissANT,2023.2.3,59.94783339246443,2024-12-12 17h43.46.708912 -0600,
blank.png,incongRight.png,right,0,,,,,1,0,1,0,0,43,43,27,353.6237320999935,,,,,,,,,,353.6117404999968,353.6237320999935,354.0739210999891,354.0589106999978,0.45,354.05897109999205,354.0739210999891,354.0739210999891,354.17400199999975,354.57419529999606,354.57419529999606,354.57419529999606,355.0932996999909,right,1,0.5043947000085609,None,,,,,,,,,,,,,,,,,,,,,,,,,,,,,,,,,,Eclipse,2,24,Female,Hispanic/Latino,,2024-12-12_17h25.11.455,dissANT,2023.2.3,59.94783339246443,2024-12-12 17h43.46.708912 -0600,
upper.png,neutralLeft.png,left,0,,,,,1,0,1,0,0,44,44,32,355.10728019999806,,,,,,,,,,355.09522069999366,355.10728019999806,355.55686819998664,355.5418859999918,0.45,355.5419464999868,355.55686819998664,355.55686819998664,355.6572723999998,356.05717499999446,356.05717499999446,356.05717499999446,356.49250179999217,left,1,0.43176089999906253,None,,,,,,,,,,,,,,,,,,,,,,,,,,,,,,,,,,Eclipse,2,24,Female,Hispanic/Latino,,2024-12-12_17h25.11.455,dissANT,2023.2.3,59.94783339246443,2024-12-12 17h43.46.708912 -0600,
centre.png,incongLeft.png,left,0,,,,,1,0,1,0,0,45,45,18,356.50703729999077,,,,,,,,,,356.49393829998735,356.50703729999077,357.0570358999976,357.0421769999957,0.55,357.0422441999981,357.0570358999976,357.0570358999976,357.15723779999826,357.55711840000004,357.55711840000004,357.55711840000004,358.12652119999984,left,1,0.5614394000003813,None,,,,,,,,,,,,,,,,,,,,,,,,,,,,,,,,,,Eclipse,2,24,Female,Hispanic/Latino,,2024-12-12_17h25.11.455,dissANT,2023.2.3,59.94783339246443,2024-12-12 17h43.46.708912 -0600,
centre.png,neutralLeft.png,right,180,,,,,1,0,1,0,0,46,46,38,358.14045369999076,,,,,,,,,,358.1280073999951,358.14045369999076,358.6903234999918,358.6754455999908,0.55,358.67550169999595,358.6903234999918,358.6903234999918,358.7907312999887,359.19024389999686,359.19024389999686,359.19024389999686,359.7438980000006,right,1,0.5383704999985639,None,,,,,,,,,,,,,,,,,,,,,,,,,,,,,,,,,,Eclipse,2,24,Female,Hispanic/Latino,,2024-12-12_17h25.11.455,dissANT,2023.2.3,59.94783339246443,2024-12-12 17h43.46.708912 -0600,
both.png,neutralLeft.png,left,0,,,,,1,0,1,0,0,47,47,33,359.75686999999743,,,,,,,,,,359.7459475999931,359.75686999999743,360.3067655999912,360.293073199995,0.55,360.29315899999347,360.3067655999912,360.3067655999912,360.40721959999064,360.8063575999986,360.8063575999986,360.8063575999986,361.30687499999476,left,1,0.4937268000066979,None,,,,,,,,,,,,,,,,,,,,,,,,,,,,,,,,,,Eclipse,2,24,Female,Hispanic/Latino,,2024-12-12_17h25.11.455,dissANT,2023.2.3,59.94783339246443,2024-12-12 17h43.46.708912 -0600,
centre.png,neutralRight.png,left,180,,,,,1,0,1,0,1,0,48,46,361.3229357999953,,,,,,,,,,361.30718469999556,361.3229357999953,361.8230416000006,361.80658449999464,0.5,361.8065951999888,361.8230416000006,361.8230416000006,361.92293779998727,362.3063276999892,362.3063276999892,362.322920599996,362.8902093999932,left,1,0.5685415000043577,None,,,,,,,,,,,,,,,,,,,,,,,,,,,,,,,,,,Eclipse,2,24,Female,Hispanic/Latino,,2024-12-12_17h25.11.455,dissANT,2023.2.3,59.94783339246443,2024-12-12 17h43.46.708912 -0600,
centre.png,congLeft.png,right,180,,,,,1,0,1,0,1,1,49,6,362.9062067999912,,,,,,,,,,362.8904604999989,362.9062067999912,363.4062744999974,363.3899381999945,0.5,363.38994919999095,363.4062744999974,363.4062744999974,363.5062215999933,363.8896659999882,363.8896659999882,363.90617199998815,364.32366169999295,right,1,0.433421299996553,None,,,,,,,,,,,,,,,,,,,,,,,,,,,,,,,,,,Eclipse,2,24,Female,Hispanic/Latino,,2024-12-12_17h25.11.455,dissANT,2023.2.3,59.94783339246443,2024-12-12 17h43.46.708912 -0600,
both.png,congLeft.png,right,180,,,,,1,0,1,0,1,2,50,5,364.3395489999966,,,,,,,,,,364.3239687999885,364.3395489999966,364.88968119998754,364.8732749999908,0.55,364.8732849999942,364.88968119998754,364.88968119998754,364.9894733999972,365.37298899999587,365.37298899999587,365.3895841999911,365.90931160000036,right,1,0.5309389999893028,None,,,,,,,,,,,,,,,,,,,,,,,,,,,,,,,,,,Eclipse,2,24,Female,Hispanic/Latino,,2024-12-12_17h25.11.455,dissANT,2023.2.3,59.94783339246443,2024-12-12 17h43.46.708912 -0600,
upper.png,congRight.png,right,0,,,,,1,0,1,0,1,3,51,8,365.9235827999946,,,,,,,,,,365.9108375999931,365.9235827999946,366.47367189999204,366.45848359999945,0.55,366.4585487000004,366.47367189999204,366.47367189999204,366.57375469998806,366.9735776999878,366.9735776999878,366.9735776999878,367.4766993999947,right,1,0.48464809999859426,None,,,,,,,,,,,,,,,,,,,,,,,,,,,,,,,,,,Eclipse,2,24,Female,Hispanic/Latino,,2024-12-12_17h25.11.455,dissANT,2023.2.3,59.94783339246443,2024-12-12 17h43.46.708912 -0600,
centre.png,neutralLeft.png,left,0,,,,,1,0,1,0,1,4,52,34,367.4901700999908,,,,,,,,,,367.47853309998754,367.4901700999908,367.9899313999922,367.9752327999886,0.5,367.9752948999958,367.9899313999922,367.9899313999922,368.08980339999835,368.49009529998875,368.49009529998875,368.49009529998875,368.9427591999993,left,1,0.4382220999978017,None,,,,,,,,,,,,,,,,,,,,,,,,,,,,,,,,,,Eclipse,2,24,Female,Hispanic/Latino,,2024-12-12_17h25.11.455,dissANT,2023.2.3,59.94783339246443,2024-12-12 17h43.46.708912 -0600,
both.png,neutralRight.png,right,0,,,,,1,0,1,0,1,5,53,41,368.9564263999928,,,,,,,,,,368.94426119999844,368.9564263999928,369.5066491999896,369.4924374999973,0.55,369.49251489999006,369.5066491999896,369.5066491999896,369.60684909998963,370.0070204999938,370.0070204999938,370.0070204999938,370.4772454999911,right,1,0.46288790000835434,None,,,,,,,,,,,,,,,,,,,,,,,,,,,,,,,,,,Eclipse,2,24,Female,Hispanic/Latino,,2024-12-12_17h25.11.455,dissANT,2023.2.3,59.94783339246443,2024-12-12 17h43.46.708912 -0600,
upper.png,neutralRight.png,right,0,,,,,1,0,1,0,1,6,54,40,370.48996649999754,,,,,,,,,,370.47900759999175,370.48996649999754,370.89006599999266,370.8745889999991,0.4,370.8746459999966,370.89006599999266,370.89006599999266,370.9902623999951,371.39010089999647,371.39010089999647,371.39010089999647,371.8459309999889,right,1,0.44978769999579526,None,,,,,,,,,,,,,,,,,,,,,,,,,,,,,,,,,,Eclipse,2,24,Female,Hispanic/Latino,,2024-12-12_17h25.11.455,dissANT,2023.2.3,59.94783339246443,2024-12-12 17h43.46.708912 -0600,
lower.png,neutralRight.png,left,180,,,,,1,0,1,0,1,7,55,44,371.85624819999794,,,,,,,,,,371.84768059999624,371.85624819999794,372.4065496999974,372.3918067999912,0.55,372.39186839999456,372.4065496999974,372.4065496999974,372.50649979998707,372.9069933999999,372.9069933999999,372.9069933999999,373.39252249999845,left,1,0.473094899993157,None,,,,,,,,,,,,,,,,,,,,,,,,,,,,,,,,,,Eclipse,2,24,Female,Hispanic/Latino,,2024-12-12_17h25.11.455,dissANT,2023.2.3,59.94783339246443,2024-12-12 17h43.46.708912 -0600,
blank.png,congLeft.png,right,180,,,,,1,0,1,0,1,8,56,7,373.4068991999957,,,,,,,,,,373.39341129999957,373.4068991999957,373.8565533999936,373.84215729999414,0.45,373.8422556000005,373.8565533999936,373.8565533999936,373.9568109999964,374.35609669999394,374.35609669999394,374.35609669999394,374.85873169999104,right,1,0.4977663999889046,None,,,,,,,,,,,,,,,,,,,,,,,,,,,,,,,,,,Eclipse,2,24,Female,Hispanic/Latino,,2024-12-12_17h25.11.455,dissANT,2023.2.3,59.94783339246443,2024-12-12 17h43.46.708912 -0600,
lower.png,neutralLeft.png,right,180,,,,,1,0,1,0,1,9,57,36,374.8732353999949,,,,,,,,,,374.8599857999943,374.8732353999949,375.273243299991,375.2588049999904,0.4,375.25888169999234,375.273243299991,375.273243299991,375.3734362999967,375.77350759999536,375.77350759999536,375.77350759999536,376.2758215999929,right,1,0.48744739999528974,None,,,,,,,,,,,,,,,,,,,,,,,,,,,,,,,,,,Eclipse,2,24,Female,Hispanic/Latino,,2024-12-12_17h25.11.455,dissANT,2023.2.3,59.94783339246443,2024-12-12 17h43.46.708912 -0600,
blank.png,congRight.png,right,0,,,,,1,0,1,0,1,10,58,11,376.29002599998785,,,,,,,,,,376.2773773999943,376.29002599998785,376.6900554999884,376.6737570999976,0.4,376.67380149998644,376.6900554999884,376.6900554999884,376.79002619998937,377.1734418999986,377.1734418999986,377.1900403999898,377.69278029999987,right,1,0.5088504000013927,None,,,,,,,,,,,,,,,,,,,,,,,,,,,,,,,,,,Eclipse,2,24,Female,Hispanic/Latino,,2024-12-12_17h25.11.455,dissANT,2023.2.3,59.94783339246443,2024-12-12 17h43.46.708912 -0600,
lower.png,congLeft.png,right,180,,,,,1,0,1,0,1,11,59,4,377.70668839999416,,,,,,,,,,377.6944368999975,377.70668839999416,378.1065457999939,378.0920446999953,0.4,378.09211339999456,378.1065457999939,378.1065457999939,378.20645749999676,378.6064384999918,378.6064384999918,378.6064384999918,379.00676259999454,right,1,0.3862895999918692,None,,,,,,,,,,,,,,,,,,,,,,,,,,,,,,,,,,Eclipse,2,24,Female,Hispanic/Latino,,2024-12-12_17h25.11.455,dissANT,2023.2.3,59.94783339246443,2024-12-12 17h43.46.708912 -0600,
blank.png,neutralLeft.png,left,0,,,,,1,0,1,0,1,12,60,35,379.02270599998883,,,,,,,,,,379.00704319999204,379.02270599998883,379.5727693999943,379.5563988999929,0.55,379.55641169998853,379.5727693999943,379.5727693999943,379.67270409999765,380.05584779998753,380.05584779998753,380.07294609998644,380.5592098999914,left,1,0.4855505999876186,None,,,,,,,,,,,,,,,,,,,,,,,,,,,,,,,,,,Eclipse,2,24,Female,Hispanic/Latino,,2024-12-12_17h25.11.455,dissANT,2023.2.3,59.94783339246443,2024-12-12 17h43.46.708912 -0600,
both.png,incongRight.png,right,0,,,,,1,0,1,0,1,13,61,25,380.57323429999815,,,,,,,,,,380.5612454999937,380.57323429999815,380.9729607999907,380.95890599999984,0.4,380.9589905999892,380.9729607999907,380.9729607999907,381.073169899988,381.4734865999926,381.4734865999926,381.4734865999926,382.0751170999865,right,1,0.5919704999978421,None,,,,,,,,,,,,,,,,,,,,,,,,,,,,,,,,,,Eclipse,2,24,Female,Hispanic/Latino,,2024-12-12_17h25.11.455,dissANT,2023.2.3,59.94783339246443,2024-12-12 17h43.46.708912 -0600,
both.png,neutralLeft.png,left,0,,,,,1,0,1,0,1,14,62,33,382.08930139998847,,,,,,,,,,382.0765274999867,382.08930139998847,382.58963559998665,382.5747524999897,0.5,382.5748193999898,382.58963559998665,382.58963559998665,382.68930569999793,383.0898961999919,383.0898961999919,383.0898961999919,383.54196049999155,left,1,0.438509100000374,None,,,,,,,,,,,,,,,,,,,,,,,,,,,,,,,,,,Eclipse,2,24,Female,Hispanic/Latino,,2024-12-12_17h25.11.455,dissANT,2023.2.3,59.94783339246443,2024-12-12 17h43.46.708912 -0600,
blank.png,neutralRight.png,right,0,,,,,1,0,1,0,1,15,63,43,383.55612299998756,,,,,,,,,,383.5434172999958,383.55612299998756,384.05630919999385,384.04198159999214,0.5,384.0420649000007,384.05630919999385,384.05630919999385,384.15647999999055,384.5564857999998,384.5564857999998,384.5564857999998,385.0594693999883,right,1,0.49138849999872036,None,,,,,,,,,,,,,,,,,,,,,,,,,,,,,,,,,,Eclipse,2,24,Female,Hispanic/Latino,,2024-12-12_17h25.11.455,dissANT,2023.2.3,59.94783339246443,2024-12-12 17h43.46.708912 -0600,
blank.png,congLeft.png,left,0,,,,,1,0,1,0,1,16,64,3,385.07308469999407,,,,,,,,,,385.06120449998707,385.07308469999407,385.6229003999906,385.6089949999878,0.55,385.60908039999777,385.6229003999906,385.6229003999906,385.7230086999916,386.12304619999486,386.12304619999486,386.12304619999486,386.56103059998713,left,1,0.43452219999744557,None,,,,,,,,,,,,,,,,,,,,,,,,,,,,,,,,,,Eclipse,2,24,Female,Hispanic/Latino,,2024-12-12_17h25.11.455,dissANT,2023.2.3,59.94783339246443,2024-12-12 17h43.46.708912 -0600,
upper.png,congLeft.png,left,0,,,,,1,0,1,0,1,17,65,0,386.57303289999254,,,,,,,,,,386.5625957999873,386.57303289999254,387.02310019999277,387.00676979999116,0.45,387.00681079999777,387.02310019999277,387.02310019999277,387.12318119998963,387.5057633999968,387.5057633999968,387.5226543999888,388.1422755999956,left,1,0.6297603999992134,None,,,,,,,,,,,,,,,,,,,,,,,,,,,,,,,,,,Eclipse,2,24,Female,Hispanic/Latino,,2024-12-12_17h25.11.455,dissANT,2023.2.3,59.94783339246443,2024-12-12 17h43.46.708912 -0600,
blank.png,neutralRight.png,left,180,,,,,1,0,1,0,1,18,66,47,388.1558398999914,,,,,,,,,,388.1439134999964,388.1558398999914,388.706047899992,388.691293699987,0.55,388.69135280000046,388.706047899992,388.706047899992,388.8063390999887,389.20632049998676,389.20632049998676,389.20632049998676,389.7425460999948,left,1,0.5267791000078432,None,,,,,,,,,,,,,,,,,,,,,,,,,,,,,,,,,,Eclipse,2,24,Female,Hispanic/Latino,,2024-12-12_17h25.11.455,dissANT,2023.2.3,59.94783339246443,2024-12-12 17h43.46.708912 -0600,
both.png,congRight.png,right,0,,,,,1,0,1,0,1,19,67,9,389.7560755999875,,,,,,,,,,389.7442949999968,389.7560755999875,390.1561090999894,390.1416609999869,0.4,390.14170719998947,390.1561090999894,390.1561090999894,390.2561937999999,390.656307799989,390.656307799989,390.656307799989,391.2592236999917,right,1,0.5846367000049213,None,,,,,,,,,,,,,,,,,,,,,,,,,,,,,,,,,,Eclipse,2,24,Female,Hispanic/Latino,,2024-12-12_17h25.11.455,dissANT,2023.2.3,59.94783339246443,2024-12-12 17h43.46.708912 -0600,
lower.png,congRight.png,left,180,,,,,1,0,1,0,1,20,68,12,391.27280219999375,,,,,,,,,,391.26108269998804,391.27280219999375,391.7223443999974,391.7064842999971,0.45,391.7065092999983,391.7223443999974,391.7223443999974,391.8228653999977,392.2060219999985,392.2060219999985,392.2228875999863,392.6431115999876,left,1,0.4214283999899635,None,,,,,,,,,,,,,,,,,,,,,,,,,,,,,,,,,,Eclipse,2,24,Female,Hispanic/Latino,,2024-12-12_17h25.11.455,dissANT,2023.2.3,59.94783339246443,2024-12-12 17h43.46.708912 -0600,
both.png,neutralRight.png,left,180,,,,,1,0,1,0,1,21,69,45,392.65609729998687,,,,,,,,,,392.6453213999921,392.65609729998687,393.20612399998936,393.1896654999873,0.55,393.18968889999087,393.20612399998936,393.20612399998936,393.3059026999981,393.68981189999613,393.68981189999613,393.7060414999869,394.09155759999703,left,1,0.3955450999928871,None,,,,,,,,,,,,,,,,,,,,,,,,,,,,,,,,,,Eclipse,2,24,Female,Hispanic/Latino,,2024-12-12_17h25.11.455,dissANT,2023.2.3,59.94783339246443,2024-12-12 17h43.46.708912 -0600,
both.png,congRight.png,left,180,,,,,1,0,1,0,1,22,70,13,394.1061345999915,,,,,,,,,,394.09298379998654,394.1061345999915,394.6559258999914,394.6417239999864,0.55,394.6417994999938,394.6559258999914,394.6559258999914,394.75610439998854,395.15625689999433,395.15625689999433,395.15625689999433,395.55856929998845,left,1,0.38809870000113733,None,,,,,,,,,,,,,,,,,,,,,,,,,,,,,,,,,,Eclipse,2,24,Female,Hispanic/Latino,,2024-12-12_17h25.11.455,dissANT,2023.2.3,59.94783339246443,2024-12-12 17h43.46.708912 -0600,
