welcome.started,welcome.stopped,WelcomeClick.x,WelcomeClick.y,WelcomeClick.leftButton,WelcomeClick.midButton,WelcomeClick.rightButton,WelcomeClick.time,participant,week,gender,race/ ethnicity,cognitive health history,date,expName,psychopyVersion,OS,frameRate,intro.started,intro.stopped,readyClick.x,readyClick.y,readyClick.leftButton,readyClick.midButton,readyClick.rightButton,practGoInst.started,practGoInst.stopped,PractGoClick.x,PractGoClick.y,PractGoClick.leftButton,PractGoClick.midButton,PractGoClick.rightButton,PractGoClick.time,practGoInst2.started,practGoInst2.stopped,PractGo2Click.x,PractGo2Click.y,PractGo2Click.leftButton,PractGo2Click.midButton,PractGo2Click.rightButton,PractGo2Click.time,practGoInst3.started,practGoInst3.stopped,PractGo3Click.x,PractGo3Click.y,PractGo3Click.leftButton,PractGo3Click.midButton,PractGo3Click.rightButton,PractGo3Click.time,trial.started,trial.stopped,feedback.started,feedback.stopped,practGo.thisRepN,practGo.thisTrialN,practGo.thisN,practGo.thisIndex,practGo.ran,Signal,fixedStopTime,testGoInst.started,testGoInst.stopped,GoTestClick.x,GoTestClick.y,GoTestClick.leftButton,GoTestClick.midButton,GoTestClick.rightButton,GoTestClick.time,TestGo.thisRepN,TestGo.thisTrialN,TestGo.thisN,TestGo.thisIndex,TestGo.ran,mixPractIntro.started,mixPractIntro.stopped,MixIntroClick.x,MixIntroClick.y,MixIntroClick.leftButton,MixIntroClick.midButton,MixIntroClick.rightButton,MixIntroClick.time,mixPractInst.started,mixPractInst.stopped,StopInstClick.x,StopInstClick.y,StopInstClick.leftButton,StopInstClick.midButton,StopInstClick.rightButton,StopInstClick.time,mixPractInst2.started,mixPractInst2.stopped,PractStop2Click.x,PractStop2Click.y,PractStop2Click.leftButton,PractStop2Click.midButton,PractStop2Click.rightButton,PractStop2Click.time,mixPractInst3.started,mixPractInst3.stopped,PractStop3Click.x,PractStop3Click.y,PractStop3Click.leftButton,PractStop3Click.midButton,PractStop3Click.rightButton,PractStop3Click.time,mixPract.thisRepN,mixPract.thisTrialN,mixPract.thisN,mixPract.thisIndex,mixPract.ran,breakResetTrial.started,breakResetTrial.stopped,trials.thisRepN,trials.thisTrialN,trials.thisN,trials.thisIndex,trials.ran,MentalFatigue.started,MentalFatigue.stopped,textbox.text,EndClick.x,EndClick.y,EndClick.leftButton,EndClick.midButton,EndClick.rightButton,EndClick.time,EndClick.clicked_name,end.started,end.stopped,mouse_2.x,mouse_2.y,mouse_2.leftButton,mouse_2.midButton,mouse_2.rightButton,mouse_2.time
0,0.8393,-0.08073115,-0.148895659,1,0,0,0.5841,Cascade,3,Female,Hispanic/Latino,NA,2024-12-19_07h06.02.681,dissOSARI,2023.2.3,Win32,60.60606061,,,,,,,,,,,,,,,,,,,,,,,,,,,,,,,,,,,,,,,,,,,,,,,,,,,,,,,,,,,,,,,,,,,,,,,,,,,,,,,,,,,,,,,,,,,,,,,,,,,,,,,,,,,,,,,,,,,,,
,,,,,,,,Cascade,3,Female,Hispanic/Latino,NA,2024-12-19_07h06.02.681,dissOSARI,2023.2.3,Win32,60.60606061,0.8396,1.3054,-0.08073115,-0.148895659,1,0,0,,,,,,,,,,,,,,,,,,,,,,,,,,,,,,,,,,,,,,,,,,,,,,,,,,,,,,,,,,,,,,,,,,,,,,,,,,,,,,,,,,,,,,,,,,,,,,,,,,,,,,,,,,,,,,
,,,,,,,,Cascade,3,Female,Hispanic/Latino,NA,2024-12-19_07h06.02.681,dissOSARI,2023.2.3,Win32,60.60606061,,,,,,,,1.3059,2.34,-0.071591775,-0.154988576,1,0,0,0.7672,,,,,,,,,,,,,,,,,,,,,,,,,,,,,,,,,,,,,,,,,,,,,,,,,,,,,,,,,,,,,,,,,,,,,,,,,,,,,,,,,,,,,,,,,,,,,,,,,,,,,,
,,,,,,,,Cascade,3,Female,Hispanic/Latino,NA,2024-12-19_07h06.02.681,dissOSARI,2023.2.3,Win32,60.60606061,,,,,,,,,,,,,,,,2.3402,2.657,-0.072353389,-0.154988576,1,0,0,0.0506,,,,,,,,,,,,,,,,,,,,,,,,,,,,,,,,,,,,,,,,,,,,,,,,,,,,,,,,,,,,,,,,,,,,,,,,,,,,,,,,,,,,,,,,,,,,,,
,,,,,,,,Cascade,3,Female,Hispanic/Latino,NA,2024-12-19_07h06.02.681,dissOSARI,2023.2.3,Win32,60.60606061,,,,,,,,,,,,,,,,,,,,,,,,2.6575,3.3573,-0.073876618,-0.154988576,1,0,0,0.4338,,,,,,,,,,,,,,,,,,,,,,,,,,,,,,,,,,,,,,,,,,,,,,,,,,,,,,,,,,,,,,,,,,,,,,,,,,,,,,,,,,,,,,
,,,,,,,,Cascade,3,Female,Hispanic/Latino,NA,2024-12-19_07h06.02.681,dissOSARI,2023.2.3,Win32,60.60606061,,,,,,,,,,,,,,,,,,,,,,,,,,,,,,,,3.3615,5.0758,5.0761,6.0765,0,0,0,1,1,0,0.5,,,,,,,,,,,,,,,,,,,,,,,,,,,,,,,,,,,,,,,,,,,,,,,,,,,,,,,,,,,,,,,,,,,,,,,,,,,
,,,,,,,,Cascade,3,Female,Hispanic/Latino,NA,2024-12-19_07h06.02.681,dissOSARI,2023.2.3,Win32,60.60606061,,,,,,,,,,,,,,,,,,,,,,,,,,,,,,,,6.0773,6.9438,6.9439,7.9445,0,1,1,2,1,0,0.5,,,,,,,,,,,,,,,,,,,,,,,,,,,,,,,,,,,,,,,,,,,,,,,,,,,,,,,,,,,,,,,,,,,,,,,,,,,
,,,,,,,,Cascade,3,Female,Hispanic/Latino,NA,2024-12-19_07h06.02.681,dissOSARI,2023.2.3,Win32,60.60606061,,,,,,,,,,,,,,,,,,,,,,,,,,,,,,,,7.9454,8.7123,8.7124,9.7123,0,2,2,4,1,0,0.5,,,,,,,,,,,,,,,,,,,,,,,,,,,,,,,,,,,,,,,,,,,,,,,,,,,,,,,,,,,,,,,,,,,,,,,,,,,
,,,,,,,,Cascade,3,Female,Hispanic/Latino,NA,2024-12-19_07h06.02.681,dissOSARI,2023.2.3,Win32,60.60606061,,,,,,,,,,,,,,,,,,,,,,,,,,,,,,,,9.7126,10.4972,10.4973,11.4968,0,3,3,0,1,0,0.5,,,,,,,,,,,,,,,,,,,,,,,,,,,,,,,,,,,,,,,,,,,,,,,,,,,,,,,,,,,,,,,,,,,,,,,,,,,
,,,,,,,,Cascade,3,Female,Hispanic/Latino,NA,2024-12-19_07h06.02.681,dissOSARI,2023.2.3,Win32,60.60606061,,,,,,,,,,,,,,,,,,,,,,,,,,,,,,,,11.4972,12.2986,12.2986,13.2987,0,4,4,3,1,0,0.5,,,,,,,,,,,,,,,,,,,,,,,,,,,,,,,,,,,,,,,,,,,,,,,,,,,,,,,,,,,,,,,,,,,,,,,,,,,
,,,,,,,,Cascade,3,Female,Hispanic/Latino,NA,2024-12-19_07h06.02.681,dissOSARI,2023.2.3,Win32,60.60606061,,,,,,,,,,,,,,,,,,,,,,,,,,,,,,,,,,,,,,,,,,,13.299,14.333,0.41355674,-0.404036558,1,0,0,0.2834,,,,,,,,,,,,,,,,,,,,,,,,,,,,,,,,,,,,,,,,,,,,,,,,,,,,,,,,,,,,,,,,,,,
,,,,,,,,Cascade,3,Female,Hispanic/Latino,NA,2024-12-19_07h06.02.681,dissOSARI,2023.2.3,Win32,60.60606061,,,,,,,,,,,,,,,,,,,,,,,,,,,,,,,,14.335,14.4503,14.4504,15.4506,,,,,,0,0.5,,,,,,,,,0,0,0,28,1,,,,,,,,,,,,,,,,,,,,,,,,,,,,,,,,,,,,,,,,,,,,,,,,,,,,,,,,,,,,,,
,,,,,,,,Cascade,3,Female,Hispanic/Latino,NA,2024-12-19_07h06.02.681,dissOSARI,2023.2.3,Win32,60.60606061,,,,,,,,,,,,,,,,,,,,,,,,,,,,,,,,15.4514,16.2849,16.285,17.2851,,,,,,0,0.5,,,,,,,,,0,1,1,18,1,,,,,,,,,,,,,,,,,,,,,,,,,,,,,,,,,,,,,,,,,,,,,,,,,,,,,,,,,,,,,,
,,,,,,,,Cascade,3,Female,Hispanic/Latino,NA,2024-12-19_07h06.02.681,dissOSARI,2023.2.3,Win32,60.60606061,,,,,,,,,,,,,,,,,,,,,,,,,,,,,,,,17.2855,18.12,18.1201,19.1199,,,,,,0,0.5,,,,,,,,,0,2,2,14,1,,,,,,,,,,,,,,,,,,,,,,,,,,,,,,,,,,,,,,,,,,,,,,,,,,,,,,,,,,,,,,
,,,,,,,,Cascade,3,Female,Hispanic/Latino,NA,2024-12-19_07h06.02.681,dissOSARI,2023.2.3,Win32,60.60606061,,,,,,,,,,,,,,,,,,,,,,,,,,,,,,,,19.1203,19.9716,19.9717,20.9721,,,,,,0,0.5,,,,,,,,,0,3,3,25,1,,,,,,,,,,,,,,,,,,,,,,,,,,,,,,,,,,,,,,,,,,,,,,,,,,,,,,,,,,,,,,
,,,,,,,,Cascade,3,Female,Hispanic/Latino,NA,2024-12-19_07h06.02.681,dissOSARI,2023.2.3,Win32,60.60606061,,,,,,,,,,,,,,,,,,,,,,,,,,,,,,,,20.973,21.7732,21.7733,22.7731,,,,,,0,0.5,,,,,,,,,0,4,4,29,1,,,,,,,,,,,,,,,,,,,,,,,,,,,,,,,,,,,,,,,,,,,,,,,,,,,,,,,,,,,,,,
,,,,,,,,Cascade,3,Female,Hispanic/Latino,NA,2024-12-19_07h06.02.681,dissOSARI,2023.2.3,Win32,60.60606061,,,,,,,,,,,,,,,,,,,,,,,,,,,,,,,,22.7735,23.5578,23.5578,24.5581,,,,,,0,0.5,,,,,,,,,0,5,5,45,1,,,,,,,,,,,,,,,,,,,,,,,,,,,,,,,,,,,,,,,,,,,,,,,,,,,,,,,,,,,,,,
,,,,,,,,Cascade,3,Female,Hispanic/Latino,NA,2024-12-19_07h06.02.681,dissOSARI,2023.2.3,Win32,60.60606061,,,,,,,,,,,,,,,,,,,,,,,,,,,,,,,,24.5584,25.4929,25.4929,26.4926,,,,,,0,0.5,,,,,,,,,0,6,6,10,1,,,,,,,,,,,,,,,,,,,,,,,,,,,,,,,,,,,,,,,,,,,,,,,,,,,,,,,,,,,,,,
,,,,,,,,Cascade,3,Female,Hispanic/Latino,NA,2024-12-19_07h06.02.681,dissOSARI,2023.2.3,Win32,60.60606061,,,,,,,,,,,,,,,,,,,,,,,,,,,,,,,,26.493,27.3266,27.3266,28.3278,,,,,,0,0.5,,,,,,,,,0,7,7,39,1,,,,,,,,,,,,,,,,,,,,,,,,,,,,,,,,,,,,,,,,,,,,,,,,,,,,,,,,,,,,,,
,,,,,,,,Cascade,3,Female,Hispanic/Latino,NA,2024-12-19_07h06.02.681,dissOSARI,2023.2.3,Win32,60.60606061,,,,,,,,,,,,,,,,,,,,,,,,,,,,,,,,28.3283,29.1785,29.1785,30.1794,,,,,,0,0.5,,,,,,,,,0,8,8,1,1,,,,,,,,,,,,,,,,,,,,,,,,,,,,,,,,,,,,,,,,,,,,,,,,,,,,,,,,,,,,,,
,,,,,,,,Cascade,3,Female,Hispanic/Latino,NA,2024-12-19_07h06.02.681,dissOSARI,2023.2.3,Win32,60.60606061,,,,,,,,,,,,,,,,,,,,,,,,,,,,,,,,30.1805,31.0808,31.0808,32.0804,,,,,,0,0.5,,,,,,,,,0,9,9,30,1,,,,,,,,,,,,,,,,,,,,,,,,,,,,,,,,,,,,,,,,,,,,,,,,,,,,,,,,,,,,,,
,,,,,,,,Cascade,3,Female,Hispanic/Latino,NA,2024-12-19_07h06.02.681,dissOSARI,2023.2.3,Win32,60.60606061,,,,,,,,,,,,,,,,,,,,,,,,,,,,,,,,32.0808,32.8817,32.8817,33.8818,,,,,,0,0.5,,,,,,,,,0,10,10,32,1,,,,,,,,,,,,,,,,,,,,,,,,,,,,,,,,,,,,,,,,,,,,,,,,,,,,,,,,,,,,,,
,,,,,,,,Cascade,3,Female,Hispanic/Latino,NA,2024-12-19_07h06.02.681,dissOSARI,2023.2.3,Win32,60.60606061,,,,,,,,,,,,,,,,,,,,,,,,,,,,,,,,33.882,34.7335,34.7335,35.7337,,,,,,0,0.5,,,,,,,,,0,11,11,19,1,,,,,,,,,,,,,,,,,,,,,,,,,,,,,,,,,,,,,,,,,,,,,,,,,,,,,,,,,,,,,,
,,,,,,,,Cascade,3,Female,Hispanic/Latino,NA,2024-12-19_07h06.02.681,dissOSARI,2023.2.3,Win32,60.60606061,,,,,,,,,,,,,,,,,,,,,,,,,,,,,,,,35.7342,36.5349,36.535,37.5351,,,,,,0,0.5,,,,,,,,,0,12,12,38,1,,,,,,,,,,,,,,,,,,,,,,,,,,,,,,,,,,,,,,,,,,,,,,,,,,,,,,,,,,,,,,
,,,,,,,,Cascade,3,Female,Hispanic/Latino,NA,2024-12-19_07h06.02.681,dissOSARI,2023.2.3,Win32,60.60606061,,,,,,,,,,,,,,,,,,,,,,,,,,,,,,,,37.5354,38.3698,38.3699,39.3702,,,,,,0,0.5,,,,,,,,,0,13,13,5,1,,,,,,,,,,,,,,,,,,,,,,,,,,,,,,,,,,,,,,,,,,,,,,,,,,,,,,,,,,,,,,
,,,,,,,,Cascade,3,Female,Hispanic/Latino,NA,2024-12-19_07h06.02.681,dissOSARI,2023.2.3,Win32,60.60606061,,,,,,,,,,,,,,,,,,,,,,,,,,,,,,,,39.3714,40.1715,40.1716,41.1713,,,,,,0,0.5,,,,,,,,,0,14,14,44,1,,,,,,,,,,,,,,,,,,,,,,,,,,,,,,,,,,,,,,,,,,,,,,,,,,,,,,,,,,,,,,
,,,,,,,,Cascade,3,Female,Hispanic/Latino,NA,2024-12-19_07h06.02.681,dissOSARI,2023.2.3,Win32,60.60606061,,,,,,,,,,,,,,,,,,,,,,,,,,,,,,,,41.1716,42.0063,42.0063,43.0065,,,,,,0,0.5,,,,,,,,,0,15,15,9,1,,,,,,,,,,,,,,,,,,,,,,,,,,,,,,,,,,,,,,,,,,,,,,,,,,,,,,,,,,,,,,
,,,,,,,,Cascade,3,Female,Hispanic/Latino,NA,2024-12-19_07h06.02.681,dissOSARI,2023.2.3,Win32,60.60606061,,,,,,,,,,,,,,,,,,,,,,,,,,,,,,,,43.0069,43.8413,43.8413,44.8415,,,,,,0,0.5,,,,,,,,,0,16,16,22,1,,,,,,,,,,,,,,,,,,,,,,,,,,,,,,,,,,,,,,,,,,,,,,,,,,,,,,,,,,,,,,
,,,,,,,,Cascade,3,Female,Hispanic/Latino,NA,2024-12-19_07h06.02.681,dissOSARI,2023.2.3,Win32,60.60606061,,,,,,,,,,,,,,,,,,,,,,,,,,,,,,,,44.8418,45.659,45.659,46.6594,,,,,,0,0.5,,,,,,,,,0,17,17,21,1,,,,,,,,,,,,,,,,,,,,,,,,,,,,,,,,,,,,,,,,,,,,,,,,,,,,,,,,,,,,,,
,,,,,,,,Cascade,3,Female,Hispanic/Latino,NA,2024-12-19_07h06.02.681,dissOSARI,2023.2.3,Win32,60.60606061,,,,,,,,,,,,,,,,,,,,,,,,,,,,,,,,46.6597,47.4607,47.4608,48.4614,,,,,,0,0.5,,,,,,,,,0,18,18,46,1,,,,,,,,,,,,,,,,,,,,,,,,,,,,,,,,,,,,,,,,,,,,,,,,,,,,,,,,,,,,,,
,,,,,,,,Cascade,3,Female,Hispanic/Latino,NA,2024-12-19_07h06.02.681,dissOSARI,2023.2.3,Win32,60.60606061,,,,,,,,,,,,,,,,,,,,,,,,,,,,,,,,48.4624,49.279,49.279,50.2791,,,,,,0,0.5,,,,,,,,,0,19,19,8,1,,,,,,,,,,,,,,,,,,,,,,,,,,,,,,,,,,,,,,,,,,,,,,,,,,,,,,,,,,,,,,
,,,,,,,,Cascade,3,Female,Hispanic/Latino,NA,2024-12-19_07h06.02.681,dissOSARI,2023.2.3,Win32,60.60606061,,,,,,,,,,,,,,,,,,,,,,,,,,,,,,,,50.2794,51.0806,51.0806,52.0807,,,,,,0,0.5,,,,,,,,,0,20,20,15,1,,,,,,,,,,,,,,,,,,,,,,,,,,,,,,,,,,,,,,,,,,,,,,,,,,,,,,,,,,,,,,
,,,,,,,,Cascade,3,Female,Hispanic/Latino,NA,2024-12-19_07h06.02.681,dissOSARI,2023.2.3,Win32,60.60606061,,,,,,,,,,,,,,,,,,,,,,,,,,,,,,,,52.0813,52.8655,52.8655,53.8657,,,,,,0,0.5,,,,,,,,,0,21,21,17,1,,,,,,,,,,,,,,,,,,,,,,,,,,,,,,,,,,,,,,,,,,,,,,,,,,,,,,,,,,,,,,
,,,,,,,,Cascade,3,Female,Hispanic/Latino,NA,2024-12-19_07h06.02.681,dissOSARI,2023.2.3,Win32,60.60606061,,,,,,,,,,,,,,,,,,,,,,,,,,,,,,,,53.866,54.6831,54.6831,55.6831,,,,,,0,0.5,,,,,,,,,0,22,22,31,1,,,,,,,,,,,,,,,,,,,,,,,,,,,,,,,,,,,,,,,,,,,,,,,,,,,,,,,,,,,,,,
,,,,,,,,Cascade,3,Female,Hispanic/Latino,NA,2024-12-19_07h06.02.681,dissOSARI,2023.2.3,Win32,60.60606061,,,,,,,,,,,,,,,,,,,,,,,,,,,,,,,,55.6834,56.5017,56.5017,57.5019,,,,,,0,0.5,,,,,,,,,0,23,23,33,1,,,,,,,,,,,,,,,,,,,,,,,,,,,,,,,,,,,,,,,,,,,,,,,,,,,,,,,,,,,,,,
,,,,,,,,Cascade,3,Female,Hispanic/Latino,NA,2024-12-19_07h06.02.681,dissOSARI,2023.2.3,Win32,60.60606061,,,,,,,,,,,,,,,,,,,,,,,,,,,,,,,,57.5025,58.3365,58.3366,59.3369,,,,,,0,0.5,,,,,,,,,0,24,24,43,1,,,,,,,,,,,,,,,,,,,,,,,,,,,,,,,,,,,,,,,,,,,,,,,,,,,,,,,,,,,,,,
,,,,,,,,Cascade,3,Female,Hispanic/Latino,NA,2024-12-19_07h06.02.681,dissOSARI,2023.2.3,Win32,60.60606061,,,,,,,,,,,,,,,,,,,,,,,,,,,,,,,,59.3372,60.1714,60.1715,61.1718,,,,,,0,0.5,,,,,,,,,0,25,25,3,1,,,,,,,,,,,,,,,,,,,,,,,,,,,,,,,,,,,,,,,,,,,,,,,,,,,,,,,,,,,,,,
,,,,,,,,Cascade,3,Female,Hispanic/Latino,NA,2024-12-19_07h06.02.681,dissOSARI,2023.2.3,Win32,60.60606061,,,,,,,,,,,,,,,,,,,,,,,,,,,,,,,,61.1724,61.9895,61.9895,62.9899,,,,,,0,0.5,,,,,,,,,0,26,26,11,1,,,,,,,,,,,,,,,,,,,,,,,,,,,,,,,,,,,,,,,,,,,,,,,,,,,,,,,,,,,,,,
,,,,,,,,Cascade,3,Female,Hispanic/Latino,NA,2024-12-19_07h06.02.681,dissOSARI,2023.2.3,Win32,60.60606061,,,,,,,,,,,,,,,,,,,,,,,,,,,,,,,,62.9906,63.8246,63.8246,64.8245,,,,,,0,0.5,,,,,,,,,0,27,27,40,1,,,,,,,,,,,,,,,,,,,,,,,,,,,,,,,,,,,,,,,,,,,,,,,,,,,,,,,,,,,,,,
,,,,,,,,Cascade,3,Female,Hispanic/Latino,NA,2024-12-19_07h06.02.681,dissOSARI,2023.2.3,Win32,60.60606061,,,,,,,,,,,,,,,,,,,,,,,,,,,,,,,,64.8249,65.6753,65.6754,66.6759,,,,,,0,0.5,,,,,,,,,0,28,28,24,1,,,,,,,,,,,,,,,,,,,,,,,,,,,,,,,,,,,,,,,,,,,,,,,,,,,,,,,,,,,,,,
,,,,,,,,Cascade,3,Female,Hispanic/Latino,NA,2024-12-19_07h06.02.681,dissOSARI,2023.2.3,Win32,60.60606061,,,,,,,,,,,,,,,,,,,,,,,,,,,,,,,,66.6762,67.444,67.4441,68.4441,,,,,,0,0.5,,,,,,,,,0,29,29,48,1,,,,,,,,,,,,,,,,,,,,,,,,,,,,,,,,,,,,,,,,,,,,,,,,,,,,,,,,,,,,,,
,,,,,,,,Cascade,3,Female,Hispanic/Latino,NA,2024-12-19_07h06.02.681,dissOSARI,2023.2.3,Win32,60.60606061,,,,,,,,,,,,,,,,,,,,,,,,,,,,,,,,68.4445,69.279,69.279,70.2794,,,,,,0,0.5,,,,,,,,,0,30,30,7,1,,,,,,,,,,,,,,,,,,,,,,,,,,,,,,,,,,,,,,,,,,,,,,,,,,,,,,,,,,,,,,
,,,,,,,,Cascade,3,Female,Hispanic/Latino,NA,2024-12-19_07h06.02.681,dissOSARI,2023.2.3,Win32,60.60606061,,,,,,,,,,,,,,,,,,,,,,,,,,,,,,,,70.2804,71.0472,71.0472,72.0471,,,,,,0,0.5,,,,,,,,,0,31,31,0,1,,,,,,,,,,,,,,,,,,,,,,,,,,,,,,,,,,,,,,,,,,,,,,,,,,,,,,,,,,,,,,
,,,,,,,,Cascade,3,Female,Hispanic/Latino,NA,2024-12-19_07h06.02.681,dissOSARI,2023.2.3,Win32,60.60606061,,,,,,,,,,,,,,,,,,,,,,,,,,,,,,,,72.0476,72.8651,72.8653,73.8652,,,,,,0,0.5,,,,,,,,,0,32,32,35,1,,,,,,,,,,,,,,,,,,,,,,,,,,,,,,,,,,,,,,,,,,,,,,,,,,,,,,,,,,,,,,
,,,,,,,,Cascade,3,Female,Hispanic/Latino,NA,2024-12-19_07h06.02.681,dissOSARI,2023.2.3,Win32,60.60606061,,,,,,,,,,,,,,,,,,,,,,,,,,,,,,,,73.8654,74.6666,74.6666,75.6664,,,,,,0,0.5,,,,,,,,,0,33,33,26,1,,,,,,,,,,,,,,,,,,,,,,,,,,,,,,,,,,,,,,,,,,,,,,,,,,,,,,,,,,,,,,
,,,,,,,,Cascade,3,Female,Hispanic/Latino,NA,2024-12-19_07h06.02.681,dissOSARI,2023.2.3,Win32,60.60606061,,,,,,,,,,,,,,,,,,,,,,,,,,,,,,,,75.6667,76.5015,76.5016,77.5013,,,,,,0,0.5,,,,,,,,,0,34,34,34,1,,,,,,,,,,,,,,,,,,,,,,,,,,,,,,,,,,,,,,,,,,,,,,,,,,,,,,,,,,,,,,
,,,,,,,,Cascade,3,Female,Hispanic/Latino,NA,2024-12-19_07h06.02.681,dissOSARI,2023.2.3,Win32,60.60606061,,,,,,,,,,,,,,,,,,,,,,,,,,,,,,,,77.5016,78.3197,78.3197,79.3201,,,,,,0,0.5,,,,,,,,,0,35,35,27,1,,,,,,,,,,,,,,,,,,,,,,,,,,,,,,,,,,,,,,,,,,,,,,,,,,,,,,,,,,,,,,
,,,,,,,,Cascade,3,Female,Hispanic/Latino,NA,2024-12-19_07h06.02.681,dissOSARI,2023.2.3,Win32,60.60606061,,,,,,,,,,,,,,,,,,,,,,,,,,,,,,,,79.3204,80.1706,80.1706,81.1713,,,,,,0,0.5,,,,,,,,,0,36,36,47,1,,,,,,,,,,,,,,,,,,,,,,,,,,,,,,,,,,,,,,,,,,,,,,,,,,,,,,,,,,,,,,
,,,,,,,,Cascade,3,Female,Hispanic/Latino,NA,2024-12-19_07h06.02.681,dissOSARI,2023.2.3,Win32,60.60606061,,,,,,,,,,,,,,,,,,,,,,,,,,,,,,,,81.1717,82.006,82.0061,83.0064,,,,,,0,0.5,,,,,,,,,0,37,37,20,1,,,,,,,,,,,,,,,,,,,,,,,,,,,,,,,,,,,,,,,,,,,,,,,,,,,,,,,,,,,,,,
,,,,,,,,Cascade,3,Female,Hispanic/Latino,NA,2024-12-19_07h06.02.681,dissOSARI,2023.2.3,Win32,60.60606061,,,,,,,,,,,,,,,,,,,,,,,,,,,,,,,,83.0073,83.7408,83.7409,84.741,,,,,,0,0.5,,,,,,,,,0,38,38,36,1,,,,,,,,,,,,,,,,,,,,,,,,,,,,,,,,,,,,,,,,,,,,,,,,,,,,,,,,,,,,,,
,,,,,,,,Cascade,3,Female,Hispanic/Latino,NA,2024-12-19_07h06.02.681,dissOSARI,2023.2.3,Win32,60.60606061,,,,,,,,,,,,,,,,,,,,,,,,,,,,,,,,84.7414,85.5757,85.5758,86.5762,,,,,,0,0.5,,,,,,,,,0,39,39,12,1,,,,,,,,,,,,,,,,,,,,,,,,,,,,,,,,,,,,,,,,,,,,,,,,,,,,,,,,,,,,,,
,,,,,,,,Cascade,3,Female,Hispanic/Latino,NA,2024-12-19_07h06.02.681,dissOSARI,2023.2.3,Win32,60.60606061,,,,,,,,,,,,,,,,,,,,,,,,,,,,,,,,86.577,87.4103,87.4103,88.4108,,,,,,0,0.5,,,,,,,,,0,40,40,6,1,,,,,,,,,,,,,,,,,,,,,,,,,,,,,,,,,,,,,,,,,,,,,,,,,,,,,,,,,,,,,,
,,,,,,,,Cascade,3,Female,Hispanic/Latino,NA,2024-12-19_07h06.02.681,dissOSARI,2023.2.3,Win32,60.60606061,,,,,,,,,,,,,,,,,,,,,,,,,,,,,,,,88.4112,89.2955,89.2955,90.2956,,,,,,0,0.5,,,,,,,,,0,41,41,4,1,,,,,,,,,,,,,,,,,,,,,,,,,,,,,,,,,,,,,,,,,,,,,,,,,,,,,,,,,,,,,,
,,,,,,,,Cascade,3,Female,Hispanic/Latino,NA,2024-12-19_07h06.02.681,dissOSARI,2023.2.3,Win32,60.60606061,,,,,,,,,,,,,,,,,,,,,,,,,,,,,,,,90.2961,91.0969,91.097,92.0972,,,,,,0,0.5,,,,,,,,,0,42,42,13,1,,,,,,,,,,,,,,,,,,,,,,,,,,,,,,,,,,,,,,,,,,,,,,,,,,,,,,,,,,,,,,
,,,,,,,,Cascade,3,Female,Hispanic/Latino,NA,2024-12-19_07h06.02.681,dissOSARI,2023.2.3,Win32,60.60606061,,,,,,,,,,,,,,,,,,,,,,,,,,,,,,,,92.0977,92.8817,92.8817,93.8818,,,,,,0,0.5,,,,,,,,,0,43,43,2,1,,,,,,,,,,,,,,,,,,,,,,,,,,,,,,,,,,,,,,,,,,,,,,,,,,,,,,,,,,,,,,
,,,,,,,,Cascade,3,Female,Hispanic/Latino,NA,2024-12-19_07h06.02.681,dissOSARI,2023.2.3,Win32,60.60606061,,,,,,,,,,,,,,,,,,,,,,,,,,,,,,,,93.8824,94.6833,94.6833,95.6829,,,,,,0,0.5,,,,,,,,,0,44,44,41,1,,,,,,,,,,,,,,,,,,,,,,,,,,,,,,,,,,,,,,,,,,,,,,,,,,,,,,,,,,,,,,
,,,,,,,,Cascade,3,Female,Hispanic/Latino,NA,2024-12-19_07h06.02.681,dissOSARI,2023.2.3,Win32,60.60606061,,,,,,,,,,,,,,,,,,,,,,,,,,,,,,,,95.6833,96.5015,96.5016,97.502,,,,,,0,0.5,,,,,,,,,0,45,45,37,1,,,,,,,,,,,,,,,,,,,,,,,,,,,,,,,,,,,,,,,,,,,,,,,,,,,,,,,,,,,,,,
,,,,,,,,Cascade,3,Female,Hispanic/Latino,NA,2024-12-19_07h06.02.681,dissOSARI,2023.2.3,Win32,60.60606061,,,,,,,,,,,,,,,,,,,,,,,,,,,,,,,,97.5028,98.2694,98.2694,99.2699,,,,,,0,0.5,,,,,,,,,0,46,46,16,1,,,,,,,,,,,,,,,,,,,,,,,,,,,,,,,,,,,,,,,,,,,,,,,,,,,,,,,,,,,,,,
,,,,,,,,Cascade,3,Female,Hispanic/Latino,NA,2024-12-19_07h06.02.681,dissOSARI,2023.2.3,Win32,60.60606061,,,,,,,,,,,,,,,,,,,,,,,,,,,,,,,,99.2707,100.0711,100.0712,101.0712,,,,,,0,0.5,,,,,,,,,0,47,47,23,1,,,,,,,,,,,,,,,,,,,,,,,,,,,,,,,,,,,,,,,,,,,,,,,,,,,,,,,,,,,,,,
,,,,,,,,Cascade,3,Female,Hispanic/Latino,NA,2024-12-19_07h06.02.681,dissOSARI,2023.2.3,Win32,60.60606061,,,,,,,,,,,,,,,,,,,,,,,,,,,,,,,,101.0715,101.8892,101.8893,102.8895,,,,,,0,0.5,,,,,,,,,0,48,48,49,1,,,,,,,,,,,,,,,,,,,,,,,,,,,,,,,,,,,,,,,,,,,,,,,,,,,,,,,,,,,,,,
,,,,,,,,Cascade,3,Female,Hispanic/Latino,NA,2024-12-19_07h06.02.681,dissOSARI,2023.2.3,Win32,60.60606061,,,,,,,,,,,,,,,,,,,,,,,,,,,,,,,,102.8898,103.7076,103.7076,104.7074,,,,,,0,0.5,,,,,,,,,0,49,49,42,1,,,,,,,,,,,,,,,,,,,,,,,,,,,,,,,,,,,,,,,,,,,,,,,,,,,,,,,,,,,,,,
,,,,,,,,Cascade,3,Female,Hispanic/Latino,NA,2024-12-19_07h06.02.681,dissOSARI,2023.2.3,Win32,60.60606061,,,,,,,,,,,,,,,,,,,,,,,,,,,,,,,,,,,,,,,,,,,,,,,,,,,,,,,,104.7078,106.7098,0.12185834,-0.299695354,1,0,0,1.2511,,,,,,,,,,,,,,,,,,,,,,,,,,,,,,,,,,,,,,,,,,,,,,,,,,,,,,
,,,,,,,,Cascade,3,Female,Hispanic/Latino,NA,2024-12-19_07h06.02.681,dissOSARI,2023.2.3,Win32,60.60606061,,,,,,,,,,,,,,,,,,,,,,,,,,,,,,,,,,,,,,,,,,,,,,,,,,,,,,,,,,,,,,,,106.71,107.2265,0.122619954,-0.29893374,1,0,0,0.2503,,,,,,,,,,,,,,,,,,,,,,,,,,,,,,,,,,,,,,,,,,,,,,
,,,,,,,,Cascade,3,Female,Hispanic/Latino,NA,2024-12-19_07h06.02.681,dissOSARI,2023.2.3,Win32,60.60606061,,,,,,,,,,,,,,,,,,,,,,,,,,,,,,,,,,,,,,,,,,,,,,,,,,,,,,,,,,,,,,,,,,,,,,,,107.2268,108.4441,0.190403656,-0.303503427,1,0,0,0.9507,,,,,,,,,,,,,,,,,,,,,,,,,,,,,,,,,,,,,,
,,,,,,,,Cascade,3,Female,Hispanic/Latino,NA,2024-12-19_07h06.02.681,dissOSARI,2023.2.3,Win32,60.60606061,,,,,,,,,,,,,,,,,,,,,,,,,,,,,,,,,,,,,,,,,,,,,,,,,,,,,,,,,,,,,,,,,,,,,,,,,,,,,,,,108.4444,109.0289,0.317593298,-0.349961919,1,0,0,0.334,,,,,,,,,,,,,,,,,,,,,,,,,,,,,,
,,,,,,,,Cascade,3,Female,Hispanic/Latino,NA,2024-12-19_07h06.02.681,dissOSARI,2023.2.3,Win32,60.60606061,,,,,,,,,,,,,,,,,,,,,,,,,,,,,,,,109.0327,109.1288,109.1288,110.129,,,,,,0,0.5,,,,,,,,,,,,,,,,,,,,,,,,,,,,,,,,,,,,,,,,,,,,,,0,0,0,9,1,,,,,,,,,,,,,,,,,,,,,,,,,
,,,,,,,,Cascade,3,Female,Hispanic/Latino,NA,2024-12-19_07h06.02.681,dissOSARI,2023.2.3,Win32,60.60606061,,,,,,,,,,,,,,,,,,,,,,,,,,,,,,,,110.1299,110.8465,110.8465,111.8467,,,,,,1,0.5,,,,,,,,,,,,,,,,,,,,,,,,,,,,,,,,,,,,,,,,,,,,,,0,1,1,1,1,,,,,,,,,,,,,,,,,,,,,,,,,
,,,,,,,,Cascade,3,Female,Hispanic/Latino,NA,2024-12-19_07h06.02.681,dissOSARI,2023.2.3,Win32,60.60606061,,,,,,,,,,,,,,,,,,,,,,,,,,,,,,,,111.8474,112.6816,112.6817,113.6818,,,,,,0,0.5,,,,,,,,,,,,,,,,,,,,,,,,,,,,,,,,,,,,,,,,,,,,,,0,2,2,7,1,,,,,,,,,,,,,,,,,,,,,,,,,
,,,,,,,,Cascade,3,Female,Hispanic/Latino,NA,2024-12-19_07h06.02.681,dissOSARI,2023.2.3,Win32,60.60606061,,,,,,,,,,,,,,,,,,,,,,,,,,,,,,,,113.6828,114.7002,114.7003,115.6995,,,,,,1,0.5,,,,,,,,,,,,,,,,,,,,,,,,,,,,,,,,,,,,,,,,,,,,,,0,3,3,4,1,,,,,,,,,,,,,,,,,,,,,,,,,
,,,,,,,,Cascade,3,Female,Hispanic/Latino,NA,2024-12-19_07h06.02.681,dissOSARI,2023.2.3,Win32,60.60606061,,,,,,,,,,,,,,,,,,,,,,,,,,,,,,,,115.6999,116.5845,116.5846,117.5848,,,,,,0,0.5,,,,,,,,,,,,,,,,,,,,,,,,,,,,,,,,,,,,,,,,,,,,,,0,4,4,5,1,,,,,,,,,,,,,,,,,,,,,,,,,
,,,,,,,,Cascade,3,Female,Hispanic/Latino,NA,2024-12-19_07h06.02.681,dissOSARI,2023.2.3,Win32,60.60606061,,,,,,,,,,,,,,,,,,,,,,,,,,,,,,,,117.5855,118.6031,118.6031,119.6031,,,,,,1,0.5,,,,,,,,,,,,,,,,,,,,,,,,,,,,,,,,,,,,,,,,,,,,,,0,5,5,3,1,,,,,,,,,,,,,,,,,,,,,,,,,
,,,,,,,,Cascade,3,Female,Hispanic/Latino,NA,2024-12-19_07h06.02.681,dissOSARI,2023.2.3,Win32,60.60606061,,,,,,,,,,,,,,,,,,,,,,,,,,,,,,,,119.6038,120.938,120.938,121.9383,,,,,,1,0.5,,,,,,,,,,,,,,,,,,,,,,,,,,,,,,,,,,,,,,,,,,,,,,0,6,6,0,1,,,,,,,,,,,,,,,,,,,,,,,,,
,,,,,,,,Cascade,3,Female,Hispanic/Latino,NA,2024-12-19_07h06.02.681,dissOSARI,2023.2.3,Win32,60.60606061,,,,,,,,,,,,,,,,,,,,,,,,,,,,,,,,121.9388,123.2579,123.258,124.2572,,,,,,1,0.5,,,,,,,,,,,,,,,,,,,,,,,,,,,,,,,,,,,,,,,,,,,,,,0,7,7,2,1,,,,,,,,,,,,,,,,,,,,,,,,,
,,,,,,,,Cascade,3,Female,Hispanic/Latino,NA,2024-12-19_07h06.02.681,dissOSARI,2023.2.3,Win32,60.60606061,,,,,,,,,,,,,,,,,,,,,,,,,,,,,,,,124.2582,125.475,125.4751,126.4755,,,,,,0,0.5,,,,,,,,,,,,,,,,,,,,,,,,,,,,,,,,,,,,,,,,,,,,,,0,8,8,6,1,,,,,,,,,,,,,,,,,,,,,,,,,
,,,,,,,,Cascade,3,Female,Hispanic/Latino,NA,2024-12-19_07h06.02.681,dissOSARI,2023.2.3,Win32,60.60606061,,,,,,,,,,,,,,,,,,,,,,,,,,,,,,,,126.476,127.3101,127.3101,128.3105,,,,,,0,0.5,,,,,,,,,,,,,,,,,,,,,,,,,,,,,,,,,,,,,,,,,,,,,,0,9,9,8,1,,,,,,,,,,,,,,,,,,,,,,,,,
,,,,,,,,Cascade,3,Female,Hispanic/Latino,NA,2024-12-19_07h06.02.681,dissOSARI,2023.2.3,Win32,60.60606061,,,,,,,,,,,,,,,,,,,,,,,,,,,,,,,,129.5296,130.9463,130.9464,131.9467,,,,,,0,0.5,,,,,,,,,,,,,,,,,,,,,,,,,,,,,,,,,,,,,,,,,,,,,,,,,,,128.314,129.5279,0,0,0,30,1,,,,,,,,,,,,,,,,,,
,,,,,,,,Cascade,3,Female,Hispanic/Latino,NA,2024-12-19_07h06.02.681,dissOSARI,2023.2.3,Win32,60.60606061,,,,,,,,,,,,,,,,,,,,,,,,,,,,,,,,131.9472,132.6648,132.6649,133.6648,,,,,,0,0.5,,,,,,,,,,,,,,,,,,,,,,,,,,,,,,,,,,,,,,,,,,,,,,,,,,,,,0,1,1,14,1,,,,,,,,,,,,,,,,,,
,,,,,,,,Cascade,3,Female,Hispanic/Latino,NA,2024-12-19_07h06.02.681,dissOSARI,2023.2.3,Win32,60.60606061,,,,,,,,,,,,,,,,,,,,,,,,,,,,,,,,133.6656,134.4829,134.4829,135.4828,,,,,,0,0.5,,,,,,,,,,,,,,,,,,,,,,,,,,,,,,,,,,,,,,,,,,,,,,,,,,,,,0,2,2,15,1,,,,,,,,,,,,,,,,,,
,,,,,,,,Cascade,3,Female,Hispanic/Latino,NA,2024-12-19_07h06.02.681,dissOSARI,2023.2.3,Win32,60.60606061,,,,,,,,,,,,,,,,,,,,,,,,,,,,,,,,135.4833,136.274,136.274,137.2685,,,,,,0,0.5,,,,,,,,,,,,,,,,,,,,,,,,,,,,,,,,,,,,,,,,,,,,,,,,,,,,,0,3,3,47,1,,,,,,,,,,,,,,,,,,
,,,,,,,,Cascade,3,Female,Hispanic/Latino,NA,2024-12-19_07h06.02.681,dissOSARI,2023.2.3,Win32,60.60606061,,,,,,,,,,,,,,,,,,,,,,,,,,,,,,,,137.2696,138.2867,138.2867,139.2864,,,,,,1,0.5,,,,,,,,,,,,,,,,,,,,,,,,,,,,,,,,,,,,,,,,,,,,,,,,,,,,,0,4,4,62,1,,,,,,,,,,,,,,,,,,
,,,,,,,,Cascade,3,Female,Hispanic/Latino,NA,2024-12-19_07h06.02.681,dissOSARI,2023.2.3,Win32,60.60606061,,,,,,,,,,,,,,,,,,,,,,,,,,,,,,,,139.2867,140.5551,140.5551,141.5548,,,,,,1,0.5,,,,,,,,,,,,,,,,,,,,,,,,,,,,,,,,,,,,,,,,,,,,,,,,,,,,,0,5,5,60,1,,,,,,,,,,,,,,,,,,
,,,,,,,,Cascade,3,Female,Hispanic/Latino,NA,2024-12-19_07h06.02.681,dissOSARI,2023.2.3,Win32,60.60606061,,,,,,,,,,,,,,,,,,,,,,,,,,,,,,,,141.5553,142.5896,142.5897,143.5899,,,,,,0,0.5,,,,,,,,,,,,,,,,,,,,,,,,,,,,,,,,,,,,,,,,,,,,,,,,,,,,,0,6,6,41,1,,,,,,,,,,,,,,,,,,
,,,,,,,,Cascade,3,Female,Hispanic/Latino,NA,2024-12-19_07h06.02.681,dissOSARI,2023.2.3,Win32,60.60606061,,,,,,,,,,,,,,,,,,,,,,,,,,,,,,,,143.5907,144.3912,144.3913,145.3913,,,,,,0,0.5,,,,,,,,,,,,,,,,,,,,,,,,,,,,,,,,,,,,,,,,,,,,,,,,,,,,,0,7,7,20,1,,,,,,,,,,,,,,,,,,
,,,,,,,,Cascade,3,Female,Hispanic/Latino,NA,2024-12-19_07h06.02.681,dissOSARI,2023.2.3,Win32,60.60606061,,,,,,,,,,,,,,,,,,,,,,,,,,,,,,,,145.3922,146.2424,146.2425,147.2428,,,,,,0,0.5,,,,,,,,,,,,,,,,,,,,,,,,,,,,,,,,,,,,,,,,,,,,,,,,,,,,,0,8,8,17,1,,,,,,,,,,,,,,,,,,
,,,,,,,,Cascade,3,Female,Hispanic/Latino,NA,2024-12-19_07h06.02.681,dissOSARI,2023.2.3,Win32,60.60606061,,,,,,,,,,,,,,,,,,,,,,,,,,,,,,,,147.2434,148.2607,148.2607,149.261,,,,,,1,0.5,,,,,,,,,,,,,,,,,,,,,,,,,,,,,,,,,,,,,,,,,,,,,,,,,,,,,0,9,9,61,1,,,,,,,,,,,,,,,,,,
,,,,,,,,Cascade,3,Female,Hispanic/Latino,NA,2024-12-19_07h06.02.681,dissOSARI,2023.2.3,Win32,60.60606061,,,,,,,,,,,,,,,,,,,,,,,,,,,,,,,,149.262,150.5634,150.5634,151.5625,,,,,,1,0.5,,,,,,,,,,,,,,,,,,,,,,,,,,,,,,,,,,,,,,,,,,,,,,,,,,,,,0,10,10,69,1,,,,,,,,,,,,,,,,,,
,,,,,,,,Cascade,3,Female,Hispanic/Latino,NA,2024-12-19_07h06.02.681,dissOSARI,2023.2.3,Win32,60.60606061,,,,,,,,,,,,,,,,,,,,,,,,,,,,,,,,151.563,152.6645,152.6646,153.665,,,,,,0,0.5,,,,,,,,,,,,,,,,,,,,,,,,,,,,,,,,,,,,,,,,,,,,,,,,,,,,,0,11,11,25,1,,,,,,,,,,,,,,,,,,
,,,,,,,,Cascade,3,Female,Hispanic/Latino,NA,2024-12-19_07h06.02.681,dissOSARI,2023.2.3,Win32,60.60606061,,,,,,,,,,,,,,,,,,,,,,,,,,,,,,,,153.6658,154.4993,154.4994,155.4988,,,,,,0,0.5,,,,,,,,,,,,,,,,,,,,,,,,,,,,,,,,,,,,,,,,,,,,,,,,,,,,,0,12,12,56,1,,,,,,,,,,,,,,,,,,
,,,,,,,,Cascade,3,Female,Hispanic/Latino,NA,2024-12-19_07h06.02.681,dissOSARI,2023.2.3,Win32,60.60606061,,,,,,,,,,,,,,,,,,,,,,,,,,,,,,,,155.4992,156.3676,156.3677,157.3677,,,,,,0,0.5,,,,,,,,,,,,,,,,,,,,,,,,,,,,,,,,,,,,,,,,,,,,,,,,,,,,,0,13,13,42,1,,,,,,,,,,,,,,,,,,
,,,,,,,,Cascade,3,Female,Hispanic/Latino,NA,2024-12-19_07h06.02.681,dissOSARI,2023.2.3,Win32,60.60606061,,,,,,,,,,,,,,,,,,,,,,,,,,,,,,,,157.3681,158.3858,158.3858,159.386,,,,,,1,0.5,,,,,,,,,,,,,,,,,,,,,,,,,,,,,,,,,,,,,,,,,,,,,,,,,,,,,0,14,14,65,1,,,,,,,,,,,,,,,,,,
,,,,,,,,Cascade,3,Female,Hispanic/Latino,NA,2024-12-19_07h06.02.681,dissOSARI,2023.2.3,Win32,60.60606061,,,,,,,,,,,,,,,,,,,,,,,,,,,,,,,,159.3863,160.3207,160.3207,161.3213,,,,,,0,0.5,,,,,,,,,,,,,,,,,,,,,,,,,,,,,,,,,,,,,,,,,,,,,,,,,,,,,0,15,15,10,1,,,,,,,,,,,,,,,,,,
,,,,,,,,Cascade,3,Female,Hispanic/Latino,NA,2024-12-19_07h06.02.681,dissOSARI,2023.2.3,Win32,60.60606061,,,,,,,,,,,,,,,,,,,,,,,,,,,,,,,,161.3223,162.1391,162.1391,163.1394,,,,,,0,0.5,,,,,,,,,,,,,,,,,,,,,,,,,,,,,,,,,,,,,,,,,,,,,,,,,,,,,0,16,16,40,1,,,,,,,,,,,,,,,,,,
,,,,,,,,Cascade,3,Female,Hispanic/Latino,NA,2024-12-19_07h06.02.681,dissOSARI,2023.2.3,Win32,60.60606061,,,,,,,,,,,,,,,,,,,,,,,,,,,,,,,,163.1404,164.1575,164.1575,165.1573,,,,,,1,0.5,,,,,,,,,,,,,,,,,,,,,,,,,,,,,,,,,,,,,,,,,,,,,,,,,,,,,0,17,17,68,1,,,,,,,,,,,,,,,,,,
,,,,,,,,Cascade,3,Female,Hispanic/Latino,NA,2024-12-19_07h06.02.681,dissOSARI,2023.2.3,Win32,60.60606061,,,,,,,,,,,,,,,,,,,,,,,,,,,,,,,,165.1576,166.209,166.2091,167.2092,,,,,,0,0.5,,,,,,,,,,,,,,,,,,,,,,,,,,,,,,,,,,,,,,,,,,,,,,,,,,,,,0,18,18,33,1,,,,,,,,,,,,,,,,,,
,,,,,,,,Cascade,3,Female,Hispanic/Latino,NA,2024-12-19_07h06.02.681,dissOSARI,2023.2.3,Win32,60.60606061,,,,,,,,,,,,,,,,,,,,,,,,,,,,,,,,167.2099,168.094,168.094,169.0942,,,,,,0,0.5,,,,,,,,,,,,,,,,,,,,,,,,,,,,,,,,,,,,,,,,,,,,,,,,,,,,,0,19,19,35,1,,,,,,,,,,,,,,,,,,
,,,,,,,,Cascade,3,Female,Hispanic/Latino,NA,2024-12-19_07h06.02.681,dissOSARI,2023.2.3,Win32,60.60606061,,,,,,,,,,,,,,,,,,,,,,,,,,,,,,,,169.0952,170.1125,170.1126,171.1124,,,,,,1,0.5,,,,,,,,,,,,,,,,,,,,,,,,,,,,,,,,,,,,,,,,,,,,,,,,,,,,,0,20,20,63,1,,,,,,,,,,,,,,,,,,
,,,,,,,,Cascade,3,Female,Hispanic/Latino,NA,2024-12-19_07h06.02.681,dissOSARI,2023.2.3,Win32,60.60606061,,,,,,,,,,,,,,,,,,,,,,,,,,,,,,,,171.1131,171.9639,171.9639,172.9641,,,,,,0,0.5,,,,,,,,,,,,,,,,,,,,,,,,,,,,,,,,,,,,,,,,,,,,,,,,,,,,,0,21,21,0,1,,,,,,,,,,,,,,,,,,
,,,,,,,,Cascade,3,Female,Hispanic/Latino,NA,2024-12-19_07h06.02.681,dissOSARI,2023.2.3,Win32,60.60606061,,,,,,,,,,,,,,,,,,,,,,,,,,,,,,,,172.9647,173.7978,173.7978,174.7991,,,,,,0,0.5,,,,,,,,,,,,,,,,,,,,,,,,,,,,,,,,,,,,,,,,,,,,,,,,,,,,,0,22,22,39,1,,,,,,,,,,,,,,,,,,
,,,,,,,,Cascade,3,Female,Hispanic/Latino,NA,2024-12-19_07h06.02.681,dissOSARI,2023.2.3,Win32,60.60606061,,,,,,,,,,,,,,,,,,,,,,,,,,,,,,,,174.7998,175.6669,175.667,176.6673,,,,,,0,0.5,,,,,,,,,,,,,,,,,,,,,,,,,,,,,,,,,,,,,,,,,,,,,,,,,,,,,0,23,23,32,1,,,,,,,,,,,,,,,,,,
,,,,,,,,Cascade,3,Female,Hispanic/Latino,NA,2024-12-19_07h06.02.681,dissOSARI,2023.2.3,Win32,60.60606061,,,,,,,,,,,,,,,,,,,,,,,,,,,,,,,,176.6678,177.5184,177.5185,178.519,,,,,,0,0.5,,,,,,,,,,,,,,,,,,,,,,,,,,,,,,,,,,,,,,,,,,,,,,,,,,,,,0,24,24,38,1,,,,,,,,,,,,,,,,,,
,,,,,,,,Cascade,3,Female,Hispanic/Latino,NA,2024-12-19_07h06.02.681,dissOSARI,2023.2.3,Win32,60.60606061,,,,,,,,,,,,,,,,,,,,,,,,,,,,,,,,178.5198,179.3201,179.3201,180.3204,,,,,,0,0.5,,,,,,,,,,,,,,,,,,,,,,,,,,,,,,,,,,,,,,,,,,,,,,,,,,,,,0,25,25,54,1,,,,,,,,,,,,,,,,,,
,,,,,,,,Cascade,3,Female,Hispanic/Latino,NA,2024-12-19_07h06.02.681,dissOSARI,2023.2.3,Win32,60.60606061,,,,,,,,,,,,,,,,,,,,,,,,,,,,,,,,180.3214,181.1711,181.1711,182.1718,,,,,,0,0.5,,,,,,,,,,,,,,,,,,,,,,,,,,,,,,,,,,,,,,,,,,,,,,,,,,,,,0,26,26,53,1,,,,,,,,,,,,,,,,,,
,,,,,,,,Cascade,3,Female,Hispanic/Latino,NA,2024-12-19_07h06.02.681,dissOSARI,2023.2.3,Win32,60.60606061,,,,,,,,,,,,,,,,,,,,,,,,,,,,,,,,182.1723,183.1904,183.1904,184.1901,,,,,,1,0.5,,,,,,,,,,,,,,,,,,,,,,,,,,,,,,,,,,,,,,,,,,,,,,,,,,,,,0,27,27,77,1,,,,,,,,,,,,,,,,,,
,,,,,,,,Cascade,3,Female,Hispanic/Latino,NA,2024-12-19_07h06.02.681,dissOSARI,2023.2.3,Win32,60.60606061,,,,,,,,,,,,,,,,,,,,,,,,,,,,,,,,184.1907,185.1244,185.1244,186.125,,,,,,1,0.5,,,,,,,,,,,,,,,,,,,,,,,,,,,,,,,,,,,,,,,,,,,,,,,,,,,,,0,28,28,66,1,,,,,,,,,,,,,,,,,,
,,,,,,,,Cascade,3,Female,Hispanic/Latino,NA,2024-12-19_07h06.02.681,dissOSARI,2023.2.3,Win32,60.60606061,,,,,,,,,,,,,,,,,,,,,,,,,,,,,,,,186.1252,187.143,187.1431,188.1431,,,,,,1,0.5,,,,,,,,,,,,,,,,,,,,,,,,,,,,,,,,,,,,,,,,,,,,,,,,,,,,,0,29,29,79,1,,,,,,,,,,,,,,,,,,
,,,,,,,,Cascade,3,Female,Hispanic/Latino,NA,2024-12-19_07h06.02.681,dissOSARI,2023.2.3,Win32,60.60606061,,,,,,,,,,,,,,,,,,,,,,,,,,,,,,,,188.1436,188.9445,188.9446,189.9447,,,,,,0,0.5,,,,,,,,,,,,,,,,,,,,,,,,,,,,,,,,,,,,,,,,,,,,,,,,,,,,,0,30,30,57,1,,,,,,,,,,,,,,,,,,
,,,,,,,,Cascade,3,Female,Hispanic/Latino,NA,2024-12-19_07h06.02.681,dissOSARI,2023.2.3,Win32,60.60606061,,,,,,,,,,,,,,,,,,,,,,,,,,,,,,,,189.9452,190.7625,190.7625,191.7627,,,,,,0,0.5,,,,,,,,,,,,,,,,,,,,,,,,,,,,,,,,,,,,,,,,,,,,,,,,,,,,,0,31,31,50,1,,,,,,,,,,,,,,,,,,
,,,,,,,,Cascade,3,Female,Hispanic/Latino,NA,2024-12-19_07h06.02.681,dissOSARI,2023.2.3,Win32,60.60606061,,,,,,,,,,,,,,,,,,,,,,,,,,,,,,,,191.7632,192.6142,192.6143,193.6145,,,,,,0,0.5,,,,,,,,,,,,,,,,,,,,,,,,,,,,,,,,,,,,,,,,,,,,,,,,,,,,,0,32,32,46,1,,,,,,,,,,,,,,,,,,
,,,,,,,,Cascade,3,Female,Hispanic/Latino,NA,2024-12-19_07h06.02.681,dissOSARI,2023.2.3,Win32,60.60606061,,,,,,,,,,,,,,,,,,,,,,,,,,,,,,,,193.615,194.4991,194.4991,195.4994,,,,,,0,0.5,,,,,,,,,,,,,,,,,,,,,,,,,,,,,,,,,,,,,,,,,,,,,,,,,,,,,0,33,33,59,1,,,,,,,,,,,,,,,,,,
,,,,,,,,Cascade,3,Female,Hispanic/Latino,NA,2024-12-19_07h06.02.681,dissOSARI,2023.2.3,Win32,60.60606061,,,,,,,,,,,,,,,,,,,,,,,,,,,,,,,,195.4997,196.3673,196.3673,197.3676,,,,,,0,0.5,,,,,,,,,,,,,,,,,,,,,,,,,,,,,,,,,,,,,,,,,,,,,,,,,,,,,0,34,34,28,1,,,,,,,,,,,,,,,,,,
,,,,,,,,Cascade,3,Female,Hispanic/Latino,NA,2024-12-19_07h06.02.681,dissOSARI,2023.2.3,Win32,60.60606061,,,,,,,,,,,,,,,,,,,,,,,,,,,,,,,,197.3681,198.3861,198.3861,199.3857,,,,,,1,0.5,,,,,,,,,,,,,,,,,,,,,,,,,,,,,,,,,,,,,,,,,,,,,,,,,,,,,0,35,35,73,1,,,,,,,,,,,,,,,,,,
,,,,,,,,Cascade,3,Female,Hispanic/Latino,NA,2024-12-19_07h06.02.681,dissOSARI,2023.2.3,Win32,60.60606061,,,,,,,,,,,,,,,,,,,,,,,,,,,,,,,,199.3861,200.4048,200.4048,201.4042,,,,,,1,0.5,,,,,,,,,,,,,,,,,,,,,,,,,,,,,,,,,,,,,,,,,,,,,,,,,,,,,0,36,36,72,1,,,,,,,,,,,,,,,,,,
,,,,,,,,Cascade,3,Female,Hispanic/Latino,NA,2024-12-19_07h06.02.681,dissOSARI,2023.2.3,Win32,60.60606061,,,,,,,,,,,,,,,,,,,,,,,,,,,,,,,,201.4048,202.2055,202.2055,203.2063,,,,,,0,0.5,,,,,,,,,,,,,,,,,,,,,,,,,,,,,,,,,,,,,,,,,,,,,,,,,,,,,0,37,37,5,1,,,,,,,,,,,,,,,,,,
,,,,,,,,Cascade,3,Female,Hispanic/Latino,NA,2024-12-19_07h06.02.681,dissOSARI,2023.2.3,Win32,60.60606061,,,,,,,,,,,,,,,,,,,,,,,,,,,,,,,,203.2071,204.0404,204.0404,205.0406,,,,,,0,0.5,,,,,,,,,,,,,,,,,,,,,,,,,,,,,,,,,,,,,,,,,,,,,,,,,,,,,0,38,38,19,1,,,,,,,,,,,,,,,,,,
,,,,,,,,Cascade,3,Female,Hispanic/Latino,NA,2024-12-19_07h06.02.681,dissOSARI,2023.2.3,Win32,60.60606061,,,,,,,,,,,,,,,,,,,,,,,,,,,,,,,,205.0415,205.8747,205.8747,206.8753,,,,,,0,0.5,,,,,,,,,,,,,,,,,,,,,,,,,,,,,,,,,,,,,,,,,,,,,,,,,,,,,0,39,39,4,1,,,,,,,,,,,,,,,,,,
,,,,,,,,Cascade,3,Female,Hispanic/Latino,NA,2024-12-19_07h06.02.681,dissOSARI,2023.2.3,Win32,60.60606061,,,,,,,,,,,,,,,,,,,,,,,,,,,,,,,,206.8757,207.66,207.66,208.6604,,,,,,0,0.5,,,,,,,,,,,,,,,,,,,,,,,,,,,,,,,,,,,,,,,,,,,,,,,,,,,,,0,40,40,24,1,,,,,,,,,,,,,,,,,,
,,,,,,,,Cascade,3,Female,Hispanic/Latino,NA,2024-12-19_07h06.02.681,dissOSARI,2023.2.3,Win32,60.60606061,,,,,,,,,,,,,,,,,,,,,,,,,,,,,,,,208.661,209.4782,209.4783,210.4785,,,,,,0,0.5,,,,,,,,,,,,,,,,,,,,,,,,,,,,,,,,,,,,,,,,,,,,,,,,,,,,,0,41,41,6,1,,,,,,,,,,,,,,,,,,
,,,,,,,,Cascade,3,Female,Hispanic/Latino,NA,2024-12-19_07h06.02.681,dissOSARI,2023.2.3,Win32,60.60606061,,,,,,,,,,,,,,,,,,,,,,,,,,,,,,,,210.4787,211.313,211.313,212.313,,,,,,0,0.5,,,,,,,,,,,,,,,,,,,,,,,,,,,,,,,,,,,,,,,,,,,,,,,,,,,,,0,42,42,8,1,,,,,,,,,,,,,,,,,,
,,,,,,,,Cascade,3,Female,Hispanic/Latino,NA,2024-12-19_07h06.02.681,dissOSARI,2023.2.3,Win32,60.60606061,,,,,,,,,,,,,,,,,,,,,,,,,,,,,,,,212.3133,213.3306,213.3306,214.3313,,,,,,1,0.5,,,,,,,,,,,,,,,,,,,,,,,,,,,,,,,,,,,,,,,,,,,,,,,,,,,,,0,43,43,70,1,,,,,,,,,,,,,,,,,,
,,,,,,,,Cascade,3,Female,Hispanic/Latino,NA,2024-12-19_07h06.02.681,dissOSARI,2023.2.3,Win32,60.60606061,,,,,,,,,,,,,,,,,,,,,,,,,,,,,,,,214.3318,215.183,215.1831,216.1834,,,,,,0,0.5,,,,,,,,,,,,,,,,,,,,,,,,,,,,,,,,,,,,,,,,,,,,,,,,,,,,,0,44,44,44,1,,,,,,,,,,,,,,,,,,
,,,,,,,,Cascade,3,Female,Hispanic/Latino,NA,2024-12-19_07h06.02.681,dissOSARI,2023.2.3,Win32,60.60606061,,,,,,,,,,,,,,,,,,,,,,,,,,,,,,,,216.184,217.0011,217.0012,218.002,,,,,,0,0.5,,,,,,,,,,,,,,,,,,,,,,,,,,,,,,,,,,,,,,,,,,,,,,,,,,,,,0,45,45,27,1,,,,,,,,,,,,,,,,,,
,,,,,,,,Cascade,3,Female,Hispanic/Latino,NA,2024-12-19_07h06.02.681,dissOSARI,2023.2.3,Win32,60.60606061,,,,,,,,,,,,,,,,,,,,,,,,,,,,,,,,218.0027,218.8691,218.8691,219.8697,,,,,,0,0.5,,,,,,,,,,,,,,,,,,,,,,,,,,,,,,,,,,,,,,,,,,,,,,,,,,,,,0,46,46,1,1,,,,,,,,,,,,,,,,,,
,,,,,,,,Cascade,3,Female,Hispanic/Latino,NA,2024-12-19_07h06.02.681,dissOSARI,2023.2.3,Win32,60.60606061,,,,,,,,,,,,,,,,,,,,,,,,,,,,,,,,219.8704,220.6707,220.6708,221.6709,,,,,,0,0.5,,,,,,,,,,,,,,,,,,,,,,,,,,,,,,,,,,,,,,,,,,,,,,,,,,,,,0,47,47,12,1,,,,,,,,,,,,,,,,,,
,,,,,,,,Cascade,3,Female,Hispanic/Latino,NA,2024-12-19_07h06.02.681,dissOSARI,2023.2.3,Win32,60.60606061,,,,,,,,,,,,,,,,,,,,,,,,,,,,,,,,221.6713,222.4723,222.4723,223.4724,,,,,,0,0.5,,,,,,,,,,,,,,,,,,,,,,,,,,,,,,,,,,,,,,,,,,,,,,,,,,,,,0,48,48,9,1,,,,,,,,,,,,,,,,,,
,,,,,,,,Cascade,3,Female,Hispanic/Latino,NA,2024-12-19_07h06.02.681,dissOSARI,2023.2.3,Win32,60.60606061,,,,,,,,,,,,,,,,,,,,,,,,,,,,,,,,223.4727,224.4907,224.4908,225.4908,,,,,,1,0.5,,,,,,,,,,,,,,,,,,,,,,,,,,,,,,,,,,,,,,,,,,,,,,,,,,,,,0,49,49,76,1,,,,,,,,,,,,,,,,,,
,,,,,,,,Cascade,3,Female,Hispanic/Latino,NA,2024-12-19_07h06.02.681,dissOSARI,2023.2.3,Win32,60.60606061,,,,,,,,,,,,,,,,,,,,,,,,,,,,,,,,225.4911,226.5923,226.5923,227.5924,,,,,,0,0.5,,,,,,,,,,,,,,,,,,,,,,,,,,,,,,,,,,,,,,,,,,,,,,,,,,,,,0,50,50,31,1,,,,,,,,,,,,,,,,,,
,,,,,,,,Cascade,3,Female,Hispanic/Latino,NA,2024-12-19_07h06.02.681,dissOSARI,2023.2.3,Win32,60.60606061,,,,,,,,,,,,,,,,,,,,,,,,,,,,,,,,227.5928,228.6106,228.6107,229.6109,,,,,,1,0.5,,,,,,,,,,,,,,,,,,,,,,,,,,,,,,,,,,,,,,,,,,,,,,,,,,,,,0,51,51,74,1,,,,,,,,,,,,,,,,,,
,,,,,,,,Cascade,3,Female,Hispanic/Latino,NA,2024-12-19_07h06.02.681,dissOSARI,2023.2.3,Win32,60.60606061,,,,,,,,,,,,,,,,,,,,,,,,,,,,,,,,229.6114,230.7791,230.7791,231.7793,,,,,,1,0.5,,,,,,,,,,,,,,,,,,,,,,,,,,,,,,,,,,,,,,,,,,,,,,,,,,,,,0,52,52,75,1,,,,,,,,,,,,,,,,,,
,,,,,,,,Cascade,3,Female,Hispanic/Latino,NA,2024-12-19_07h06.02.681,dissOSARI,2023.2.3,Win32,60.60606061,,,,,,,,,,,,,,,,,,,,,,,,,,,,,,,,231.7797,232.6808,232.6808,233.6808,,,,,,0,0.5,,,,,,,,,,,,,,,,,,,,,,,,,,,,,,,,,,,,,,,,,,,,,,,,,,,,,0,53,53,7,1,,,,,,,,,,,,,,,,,,
,,,,,,,,Cascade,3,Female,Hispanic/Latino,NA,2024-12-19_07h06.02.681,dissOSARI,2023.2.3,Win32,60.60606061,,,,,,,,,,,,,,,,,,,,,,,,,,,,,,,,233.6813,234.532,234.532,235.5325,,,,,,0,0.5,,,,,,,,,,,,,,,,,,,,,,,,,,,,,,,,,,,,,,,,,,,,,,,,,,,,,0,54,54,52,1,,,,,,,,,,,,,,,,,,
,,,,,,,,Cascade,3,Female,Hispanic/Latino,NA,2024-12-19_07h06.02.681,dissOSARI,2023.2.3,Win32,60.60606061,,,,,,,,,,,,,,,,,,,,,,,,,,,,,,,,235.533,236.3505,236.3506,237.3507,,,,,,0,0.5,,,,,,,,,,,,,,,,,,,,,,,,,,,,,,,,,,,,,,,,,,,,,,,,,,,,,0,55,55,2,1,,,,,,,,,,,,,,,,,,
,,,,,,,,Cascade,3,Female,Hispanic/Latino,NA,2024-12-19_07h06.02.681,dissOSARI,2023.2.3,Win32,60.60606061,,,,,,,,,,,,,,,,,,,,,,,,,,,,,,,,237.3513,238.2185,238.2186,239.219,,,,,,0,0.5,,,,,,,,,,,,,,,,,,,,,,,,,,,,,,,,,,,,,,,,,,,,,,,,,,,,,0,56,56,48,1,,,,,,,,,,,,,,,,,,
,,,,,,,,Cascade,3,Female,Hispanic/Latino,NA,2024-12-19_07h06.02.681,dissOSARI,2023.2.3,Win32,60.60606061,,,,,,,,,,,,,,,,,,,,,,,,,,,,,,,,239.2192,240.1036,240.1036,241.1036,,,,,,0,0.5,,,,,,,,,,,,,,,,,,,,,,,,,,,,,,,,,,,,,,,,,,,,,,,,,,,,,0,57,57,58,1,,,,,,,,,,,,,,,,,,
,,,,,,,,Cascade,3,Female,Hispanic/Latino,NA,2024-12-19_07h06.02.681,dissOSARI,2023.2.3,Win32,60.60606061,,,,,,,,,,,,,,,,,,,,,,,,,,,,,,,,241.1041,242.1217,242.1218,243.122,,,,,,1,0.5,,,,,,,,,,,,,,,,,,,,,,,,,,,,,,,,,,,,,,,,,,,,,,,,,,,,,0,58,58,67,1,,,,,,,,,,,,,,,,,,
,,,,,,,,Cascade,3,Female,Hispanic/Latino,NA,2024-12-19_07h06.02.681,dissOSARI,2023.2.3,Win32,60.60606061,,,,,,,,,,,,,,,,,,,,,,,,,,,,,,,,243.1226,244.1406,244.1407,245.1404,,,,,,1,0.5,,,,,,,,,,,,,,,,,,,,,,,,,,,,,,,,,,,,,,,,,,,,,,,,,,,,,0,59,59,78,1,,,,,,,,,,,,,,,,,,
,,,,,,,,Cascade,3,Female,Hispanic/Latino,NA,2024-12-19_07h06.02.681,dissOSARI,2023.2.3,Win32,60.60606061,,,,,,,,,,,,,,,,,,,,,,,,,,,,,,,,245.1406,245.9582,245.9582,246.9583,,,,,,0,0.5,,,,,,,,,,,,,,,,,,,,,,,,,,,,,,,,,,,,,,,,,,,,,,,,,,,,,0,60,60,16,1,,,,,,,,,,,,,,,,,,
,,,,,,,,Cascade,3,Female,Hispanic/Latino,NA,2024-12-19_07h06.02.681,dissOSARI,2023.2.3,Win32,60.60606061,,,,,,,,,,,,,,,,,,,,,,,,,,,,,,,,246.9587,247.7761,247.7762,248.7764,,,,,,0,0.5,,,,,,,,,,,,,,,,,,,,,,,,,,,,,,,,,,,,,,,,,,,,,,,,,,,,,0,61,61,3,1,,,,,,,,,,,,,,,,,,
,,,,,,,,Cascade,3,Female,Hispanic/Latino,NA,2024-12-19_07h06.02.681,dissOSARI,2023.2.3,Win32,60.60606061,,,,,,,,,,,,,,,,,,,,,,,,,,,,,,,,248.7767,249.6111,249.6112,250.6114,,,,,,0,0.5,,,,,,,,,,,,,,,,,,,,,,,,,,,,,,,,,,,,,,,,,,,,,,,,,,,,,0,62,62,18,1,,,,,,,,,,,,,,,,,,
,,,,,,,,Cascade,3,Female,Hispanic/Latino,NA,2024-12-19_07h06.02.681,dissOSARI,2023.2.3,Win32,60.60606061,,,,,,,,,,,,,,,,,,,,,,,,,,,,,,,,250.6119,251.4795,251.4795,252.4796,,,,,,0,0.5,,,,,,,,,,,,,,,,,,,,,,,,,,,,,,,,,,,,,,,,,,,,,,,,,,,,,0,63,63,11,1,,,,,,,,,,,,,,,,,,
,,,,,,,,Cascade,3,Female,Hispanic/Latino,NA,2024-12-19_07h06.02.681,dissOSARI,2023.2.3,Win32,60.60606061,,,,,,,,,,,,,,,,,,,,,,,,,,,,,,,,252.4802,253.3145,253.3145,254.3146,,,,,,0,0.5,,,,,,,,,,,,,,,,,,,,,,,,,,,,,,,,,,,,,,,,,,,,,,,,,,,,,0,64,64,26,1,,,,,,,,,,,,,,,,,,
,,,,,,,,Cascade,3,Female,Hispanic/Latino,NA,2024-12-19_07h06.02.681,dissOSARI,2023.2.3,Win32,60.60606061,,,,,,,,,,,,,,,,,,,,,,,,,,,,,,,,254.315,255.1993,255.1993,256.1994,,,,,,0,0.5,,,,,,,,,,,,,,,,,,,,,,,,,,,,,,,,,,,,,,,,,,,,,,,,,,,,,0,65,65,22,1,,,,,,,,,,,,,,,,,,
,,,,,,,,Cascade,3,Female,Hispanic/Latino,NA,2024-12-19_07h06.02.681,dissOSARI,2023.2.3,Win32,60.60606061,,,,,,,,,,,,,,,,,,,,,,,,,,,,,,,,256.1999,257.2176,257.2176,258.2181,,,,,,1,0.5,,,,,,,,,,,,,,,,,,,,,,,,,,,,,,,,,,,,,,,,,,,,,,,,,,,,,0,66,66,64,1,,,,,,,,,,,,,,,,,,
,,,,,,,,Cascade,3,Female,Hispanic/Latino,NA,2024-12-19_07h06.02.681,dissOSARI,2023.2.3,Win32,60.60606061,,,,,,,,,,,,,,,,,,,,,,,,,,,,,,,,258.2192,259.2524,259.2525,260.2525,,,,,,0,0.5,,,,,,,,,,,,,,,,,,,,,,,,,,,,,,,,,,,,,,,,,,,,,,,,,,,,,0,67,67,21,1,,,,,,,,,,,,,,,,,,
,,,,,,,,Cascade,3,Female,Hispanic/Latino,NA,2024-12-19_07h06.02.681,dissOSARI,2023.2.3,Win32,60.60606061,,,,,,,,,,,,,,,,,,,,,,,,,,,,,,,,260.2528,261.0875,261.0875,262.0878,,,,,,0,0.5,,,,,,,,,,,,,,,,,,,,,,,,,,,,,,,,,,,,,,,,,,,,,,,,,,,,,0,68,68,34,1,,,,,,,,,,,,,,,,,,
,,,,,,,,Cascade,3,Female,Hispanic/Latino,NA,2024-12-19_07h06.02.681,dissOSARI,2023.2.3,Win32,60.60606061,,,,,,,,,,,,,,,,,,,,,,,,,,,,,,,,262.0881,262.939,262.9391,263.939,,,,,,0,0.5,,,,,,,,,,,,,,,,,,,,,,,,,,,,,,,,,,,,,,,,,,,,,,,,,,,,,0,69,69,43,1,,,,,,,,,,,,,,,,,,
,,,,,,,,Cascade,3,Female,Hispanic/Latino,NA,2024-12-19_07h06.02.681,dissOSARI,2023.2.3,Win32,60.60606061,,,,,,,,,,,,,,,,,,,,,,,,,,,,,,,,263.9396,264.7739,264.7739,265.7741,,,,,,0,0.5,,,,,,,,,,,,,,,,,,,,,,,,,,,,,,,,,,,,,,,,,,,,,,,,,,,,,0,70,70,45,1,,,,,,,,,,,,,,,,,,
,,,,,,,,Cascade,3,Female,Hispanic/Latino,NA,2024-12-19_07h06.02.681,dissOSARI,2023.2.3,Win32,60.60606061,,,,,,,,,,,,,,,,,,,,,,,,,,,,,,,,265.7748,266.6588,266.6588,267.6591,,,,,,0,0.5,,,,,,,,,,,,,,,,,,,,,,,,,,,,,,,,,,,,,,,,,,,,,,,,,,,,,0,71,71,51,1,,,,,,,,,,,,,,,,,,
,,,,,,,,Cascade,3,Female,Hispanic/Latino,NA,2024-12-19_07h06.02.681,dissOSARI,2023.2.3,Win32,60.60606061,,,,,,,,,,,,,,,,,,,,,,,,,,,,,,,,267.6596,268.5103,268.5103,269.5105,,,,,,0,0.5,,,,,,,,,,,,,,,,,,,,,,,,,,,,,,,,,,,,,,,,,,,,,,,,,,,,,0,72,72,37,1,,,,,,,,,,,,,,,,,,
,,,,,,,,Cascade,3,Female,Hispanic/Latino,NA,2024-12-19_07h06.02.681,dissOSARI,2023.2.3,Win32,60.60606061,,,,,,,,,,,,,,,,,,,,,,,,,,,,,,,,269.5109,270.3769,270.3769,271.3784,,,,,,0,0.5,,,,,,,,,,,,,,,,,,,,,,,,,,,,,,,,,,,,,,,,,,,,,,,,,,,,,0,73,73,49,1,,,,,,,,,,,,,,,,,,
,,,,,,,,Cascade,3,Female,Hispanic/Latino,NA,2024-12-19_07h06.02.681,dissOSARI,2023.2.3,Win32,60.60606061,,,,,,,,,,,,,,,,,,,,,,,,,,,,,,,,271.3791,272.3982,272.3982,273.3964,,,,,,1,0.5,,,,,,,,,,,,,,,,,,,,,,,,,,,,,,,,,,,,,,,,,,,,,,,,,,,,,0,74,74,71,1,,,,,,,,,,,,,,,,,,
,,,,,,,,Cascade,3,Female,Hispanic/Latino,NA,2024-12-19_07h06.02.681,dissOSARI,2023.2.3,Win32,60.60606061,,,,,,,,,,,,,,,,,,,,,,,,,,,,,,,,273.3967,274.3818,274.3819,275.382,,,,,,0,0.5,,,,,,,,,,,,,,,,,,,,,,,,,,,,,,,,,,,,,,,,,,,,,,,,,,,,,0,75,75,23,1,,,,,,,,,,,,,,,,,,
,,,,,,,,Cascade,3,Female,Hispanic/Latino,NA,2024-12-19_07h06.02.681,dissOSARI,2023.2.3,Win32,60.60606061,,,,,,,,,,,,,,,,,,,,,,,,,,,,,,,,275.3826,276.2167,276.2168,277.2172,,,,,,0,0.5,,,,,,,,,,,,,,,,,,,,,,,,,,,,,,,,,,,,,,,,,,,,,,,,,,,,,0,76,76,29,1,,,,,,,,,,,,,,,,,,
,,,,,,,,Cascade,3,Female,Hispanic/Latino,NA,2024-12-19_07h06.02.681,dissOSARI,2023.2.3,Win32,60.60606061,,,,,,,,,,,,,,,,,,,,,,,,,,,,,,,,277.2181,278.051,278.0511,279.052,,,,,,0,0.5,,,,,,,,,,,,,,,,,,,,,,,,,,,,,,,,,,,,,,,,,,,,,,,,,,,,,0,77,77,13,1,,,,,,,,,,,,,,,,,,
,,,,,,,,Cascade,3,Female,Hispanic/Latino,NA,2024-12-19_07h06.02.681,dissOSARI,2023.2.3,Win32,60.60606061,,,,,,,,,,,,,,,,,,,,,,,,,,,,,,,,279.0529,279.8864,279.8864,280.886,,,,,,0,0.5,,,,,,,,,,,,,,,,,,,,,,,,,,,,,,,,,,,,,,,,,,,,,,,,,,,,,0,78,78,55,1,,,,,,,,,,,,,,,,,,
,,,,,,,,Cascade,3,Female,Hispanic/Latino,NA,2024-12-19_07h06.02.681,dissOSARI,2023.2.3,Win32,60.60606061,,,,,,,,,,,,,,,,,,,,,,,,,,,,,,,,280.8863,281.7714,281.7714,282.7716,,,,,,0,0.5,,,,,,,,,,,,,,,,,,,,,,,,,,,,,,,,,,,,,,,,,,,,,,,,,,,,,0,79,79,36,1,,,,,,,,,,,,,,,,,,
,,,,,,,,Cascade,3,Female,Hispanic/Latino,NA,2024-12-19_07h06.02.681,dissOSARI,2023.2.3,Win32,60.60606061,,,,,,,,,,,,,,,,,,,,,,,,,,,,,,,,284.008,286.3248,286.3248,287.3255,,,,,,0,0.5,,,,,,,,,,,,,,,,,,,,,,,,,,,,,,,,,,,,,,,,,,,,,,,,,,,282.7724,284.0054,0,0,0,29,1,,,,,,,,,,,,,,,,,,
,,,,,,,,Cascade,3,Female,Hispanic/Latino,NA,2024-12-19_07h06.02.681,dissOSARI,2023.2.3,Win32,60.60606061,,,,,,,,,,,,,,,,,,,,,,,,,,,,,,,,287.3261,288.2433,288.2433,289.2436,,,,,,0,0.5,,,,,,,,,,,,,,,,,,,,,,,,,,,,,,,,,,,,,,,,,,,,,,,,,,,,,0,1,1,18,1,,,,,,,,,,,,,,,,,,
,,,,,,,,Cascade,3,Female,Hispanic/Latino,NA,2024-12-19_07h06.02.681,dissOSARI,2023.2.3,Win32,60.60606061,,,,,,,,,,,,,,,,,,,,,,,,,,,,,,,,289.2445,290.0448,290.0448,291.045,,,,,,0,0.5,,,,,,,,,,,,,,,,,,,,,,,,,,,,,,,,,,,,,,,,,,,,,,,,,,,,,0,2,2,24,1,,,,,,,,,,,,,,,,,,
,,,,,,,,Cascade,3,Female,Hispanic/Latino,NA,2024-12-19_07h06.02.681,dissOSARI,2023.2.3,Win32,60.60606061,,,,,,,,,,,,,,,,,,,,,,,,,,,,,,,,291.0453,291.8795,291.8796,292.8801,,,,,,0,0.5,,,,,,,,,,,,,,,,,,,,,,,,,,,,,,,,,,,,,,,,,,,,,,,,,,,,,0,3,3,43,1,,,,,,,,,,,,,,,,,,
,,,,,,,,Cascade,3,Female,Hispanic/Latino,NA,2024-12-19_07h06.02.681,dissOSARI,2023.2.3,Win32,60.60606061,,,,,,,,,,,,,,,,,,,,,,,,,,,,,,,,292.8811,293.8988,293.8989,294.8984,,,,,,1,0.5,,,,,,,,,,,,,,,,,,,,,,,,,,,,,,,,,,,,,,,,,,,,,,,,,,,,,0,4,4,60,1,,,,,,,,,,,,,,,,,,
,,,,,,,,Cascade,3,Female,Hispanic/Latino,NA,2024-12-19_07h06.02.681,dissOSARI,2023.2.3,Win32,60.60606061,,,,,,,,,,,,,,,,,,,,,,,,,,,,,,,,294.8992,295.783,295.7831,296.783,,,,,,0,0.5,,,,,,,,,,,,,,,,,,,,,,,,,,,,,,,,,,,,,,,,,,,,,,,,,,,,,0,5,5,7,1,,,,,,,,,,,,,,,,,,
,,,,,,,,Cascade,3,Female,Hispanic/Latino,NA,2024-12-19_07h06.02.681,dissOSARI,2023.2.3,Win32,60.60606061,,,,,,,,,,,,,,,,,,,,,,,,,,,,,,,,296.7839,297.6011,297.6012,298.6015,,,,,,0,0.5,,,,,,,,,,,,,,,,,,,,,,,,,,,,,,,,,,,,,,,,,,,,,,,,,,,,,0,6,6,39,1,,,,,,,,,,,,,,,,,,
,,,,,,,,Cascade,3,Female,Hispanic/Latino,NA,2024-12-19_07h06.02.681,dissOSARI,2023.2.3,Win32,60.60606061,,,,,,,,,,,,,,,,,,,,,,,,,,,,,,,,298.6024,299.4523,299.4524,300.453,,,,,,0,0.5,,,,,,,,,,,,,,,,,,,,,,,,,,,,,,,,,,,,,,,,,,,,,,,,,,,,,0,7,7,32,1,,,,,,,,,,,,,,,,,,
,,,,,,,,Cascade,3,Female,Hispanic/Latino,NA,2024-12-19_07h06.02.681,dissOSARI,2023.2.3,Win32,60.60606061,,,,,,,,,,,,,,,,,,,,,,,,,,,,,,,,300.4538,301.2874,301.2875,302.2877,,,,,,0,0.5,,,,,,,,,,,,,,,,,,,,,,,,,,,,,,,,,,,,,,,,,,,,,,,,,,,,,0,8,8,15,1,,,,,,,,,,,,,,,,,,
,,,,,,,,Cascade,3,Female,Hispanic/Latino,NA,2024-12-19_07h06.02.681,dissOSARI,2023.2.3,Win32,60.60606061,,,,,,,,,,,,,,,,,,,,,,,,,,,,,,,,302.2885,303.1389,303.139,304.1393,,,,,,0,0.5,,,,,,,,,,,,,,,,,,,,,,,,,,,,,,,,,,,,,,,,,,,,,,,,,,,,,0,9,9,34,1,,,,,,,,,,,,,,,,,,
,,,,,,,,Cascade,3,Female,Hispanic/Latino,NA,2024-12-19_07h06.02.681,dissOSARI,2023.2.3,Win32,60.60606061,,,,,,,,,,,,,,,,,,,,,,,,,,,,,,,,304.1402,304.9738,304.9738,305.974,,,,,,0,0.5,,,,,,,,,,,,,,,,,,,,,,,,,,,,,,,,,,,,,,,,,,,,,,,,,,,,,0,10,10,1,1,,,,,,,,,,,,,,,,,,
,,,,,,,,Cascade,3,Female,Hispanic/Latino,NA,2024-12-19_07h06.02.681,dissOSARI,2023.2.3,Win32,60.60606061,,,,,,,,,,,,,,,,,,,,,,,,,,,,,,,,305.9744,306.9917,306.9918,307.9921,,,,,,1,0.5,,,,,,,,,,,,,,,,,,,,,,,,,,,,,,,,,,,,,,,,,,,,,,,,,,,,,0,11,11,75,1,,,,,,,,,,,,,,,,,,
,,,,,,,,Cascade,3,Female,Hispanic/Latino,NA,2024-12-19_07h06.02.681,dissOSARI,2023.2.3,Win32,60.60606061,,,,,,,,,,,,,,,,,,,,,,,,,,,,,,,,307.9925,308.8768,308.8768,309.8775,,,,,,1,0.5,,,,,,,,,,,,,,,,,,,,,,,,,,,,,,,,,,,,,,,,,,,,,,,,,,,,,0,12,12,70,1,,,,,,,,,,,,,,,,,,
,,,,,,,,Cascade,3,Female,Hispanic/Latino,NA,2024-12-19_07h06.02.681,dissOSARI,2023.2.3,Win32,60.60606061,,,,,,,,,,,,,,,,,,,,,,,,,,,,,,,,309.8785,310.7452,310.7452,311.7456,,,,,,0,0.5,,,,,,,,,,,,,,,,,,,,,,,,,,,,,,,,,,,,,,,,,,,,,,,,,,,,,0,13,13,11,1,,,,,,,,,,,,,,,,,,
,,,,,,,,Cascade,3,Female,Hispanic/Latino,NA,2024-12-19_07h06.02.681,dissOSARI,2023.2.3,Win32,60.60606061,,,,,,,,,,,,,,,,,,,,,,,,,,,,,,,,311.7462,312.6136,312.6136,313.614,,,,,,0,0.5,,,,,,,,,,,,,,,,,,,,,,,,,,,,,,,,,,,,,,,,,,,,,,,,,,,,,0,14,14,46,1,,,,,,,,,,,,,,,,,,
,,,,,,,,Cascade,3,Female,Hispanic/Latino,NA,2024-12-19_07h06.02.681,dissOSARI,2023.2.3,Win32,60.60606061,,,,,,,,,,,,,,,,,,,,,,,,,,,,,,,,313.6151,314.415,314.4151,315.4154,,,,,,0,0.5,,,,,,,,,,,,,,,,,,,,,,,,,,,,,,,,,,,,,,,,,,,,,,,,,,,,,0,15,15,20,1,,,,,,,,,,,,,,,,,,
,,,,,,,,Cascade,3,Female,Hispanic/Latino,NA,2024-12-19_07h06.02.681,dissOSARI,2023.2.3,Win32,60.60606061,,,,,,,,,,,,,,,,,,,,,,,,,,,,,,,,315.4162,316.2665,316.2665,317.2666,,,,,,0,0.5,,,,,,,,,,,,,,,,,,,,,,,,,,,,,,,,,,,,,,,,,,,,,,,,,,,,,0,16,16,5,1,,,,,,,,,,,,,,,,,,
,,,,,,,,Cascade,3,Female,Hispanic/Latino,NA,2024-12-19_07h06.02.681,dissOSARI,2023.2.3,Win32,60.60606061,,,,,,,,,,,,,,,,,,,,,,,,,,,,,,,,317.267,318.0847,318.0847,319.085,,,,,,0,0.5,,,,,,,,,,,,,,,,,,,,,,,,,,,,,,,,,,,,,,,,,,,,,,,,,,,,,0,17,17,14,1,,,,,,,,,,,,,,,,,,
,,,,,,,,Cascade,3,Female,Hispanic/Latino,NA,2024-12-19_07h06.02.681,dissOSARI,2023.2.3,Win32,60.60606061,,,,,,,,,,,,,,,,,,,,,,,,,,,,,,,,319.086,319.8693,319.8694,320.8698,,,,,,0,0.5,,,,,,,,,,,,,,,,,,,,,,,,,,,,,,,,,,,,,,,,,,,,,,,,,,,,,0,18,18,56,1,,,,,,,,,,,,,,,,,,
,,,,,,,,Cascade,3,Female,Hispanic/Latino,NA,2024-12-19_07h06.02.681,dissOSARI,2023.2.3,Win32,60.60606061,,,,,,,,,,,,,,,,,,,,,,,,,,,,,,,,320.871,321.6869,321.687,322.6879,,,,,,0,0.5,,,,,,,,,,,,,,,,,,,,,,,,,,,,,,,,,,,,,,,,,,,,,,,,,,,,,0,19,19,8,1,,,,,,,,,,,,,,,,,,
,,,,,,,,Cascade,3,Female,Hispanic/Latino,NA,2024-12-19_07h06.02.681,dissOSARI,2023.2.3,Win32,60.60606061,,,,,,,,,,,,,,,,,,,,,,,,,,,,,,,,322.6889,323.5388,323.5389,324.5394,,,,,,0,0.5,,,,,,,,,,,,,,,,,,,,,,,,,,,,,,,,,,,,,,,,,,,,,,,,,,,,,0,20,20,45,1,,,,,,,,,,,,,,,,,,
,,,,,,,,Cascade,3,Female,Hispanic/Latino,NA,2024-12-19_07h06.02.681,dissOSARI,2023.2.3,Win32,60.60606061,,,,,,,,,,,,,,,,,,,,,,,,,,,,,,,,324.5401,325.3575,325.3575,326.3576,,,,,,0,0.5,,,,,,,,,,,,,,,,,,,,,,,,,,,,,,,,,,,,,,,,,,,,,,,,,,,,,0,21,21,27,1,,,,,,,,,,,,,,,,,,
,,,,,,,,Cascade,3,Female,Hispanic/Latino,NA,2024-12-19_07h06.02.681,dissOSARI,2023.2.3,Win32,60.60606061,,,,,,,,,,,,,,,,,,,,,,,,,,,,,,,,326.3584,327.209,327.209,328.2089,,,,,,0,0.5,,,,,,,,,,,,,,,,,,,,,,,,,,,,,,,,,,,,,,,,,,,,,,,,,,,,,0,22,22,35,1,,,,,,,,,,,,,,,,,,
,,,,,,,,Cascade,3,Female,Hispanic/Latino,NA,2024-12-19_07h06.02.681,dissOSARI,2023.2.3,Win32,60.60606061,,,,,,,,,,,,,,,,,,,,,,,,,,,,,,,,328.2097,329.0433,329.0433,330.0433,,,,,,0,0.5,,,,,,,,,,,,,,,,,,,,,,,,,,,,,,,,,,,,,,,,,,,,,,,,,,,,,0,23,23,55,1,,,,,,,,,,,,,,,,,,
,,,,,,,,Cascade,3,Female,Hispanic/Latino,NA,2024-12-19_07h06.02.681,dissOSARI,2023.2.3,Win32,60.60606061,,,,,,,,,,,,,,,,,,,,,,,,,,,,,,,,330.0436,330.862,330.862,331.8619,,,,,,0,0.5,,,,,,,,,,,,,,,,,,,,,,,,,,,,,,,,,,,,,,,,,,,,,,,,,,,,,0,24,24,53,1,,,,,,,,,,,,,,,,,,
,,,,,,,,Cascade,3,Female,Hispanic/Latino,NA,2024-12-19_07h06.02.681,dissOSARI,2023.2.3,Win32,60.60606061,,,,,,,,,,,,,,,,,,,,,,,,,,,,,,,,331.8627,332.6797,332.6798,333.6802,,,,,,0,0.5,,,,,,,,,,,,,,,,,,,,,,,,,,,,,,,,,,,,,,,,,,,,,,,,,,,,,0,25,25,28,1,,,,,,,,,,,,,,,,,,
,,,,,,,,Cascade,3,Female,Hispanic/Latino,NA,2024-12-19_07h06.02.681,dissOSARI,2023.2.3,Win32,60.60606061,,,,,,,,,,,,,,,,,,,,,,,,,,,,,,,,333.6809,334.4815,334.4815,335.4819,,,,,,0,0.5,,,,,,,,,,,,,,,,,,,,,,,,,,,,,,,,,,,,,,,,,,,,,,,,,,,,,0,26,26,23,1,,,,,,,,,,,,,,,,,,
,,,,,,,,Cascade,3,Female,Hispanic/Latino,NA,2024-12-19_07h06.02.681,dissOSARI,2023.2.3,Win32,60.60606061,,,,,,,,,,,,,,,,,,,,,,,,,,,,,,,,335.4823,336.3164,336.3164,337.3167,,,,,,0,0.5,,,,,,,,,,,,,,,,,,,,,,,,,,,,,,,,,,,,,,,,,,,,,,,,,,,,,0,27,27,40,1,,,,,,,,,,,,,,,,,,
,,,,,,,,Cascade,3,Female,Hispanic/Latino,NA,2024-12-19_07h06.02.681,dissOSARI,2023.2.3,Win32,60.60606061,,,,,,,,,,,,,,,,,,,,,,,,,,,,,,,,337.3176,338.1679,338.168,339.1685,,,,,,0,0.5,,,,,,,,,,,,,,,,,,,,,,,,,,,,,,,,,,,,,,,,,,,,,,,,,,,,,0,28,28,54,1,,,,,,,,,,,,,,,,,,
,,,,,,,,Cascade,3,Female,Hispanic/Latino,NA,2024-12-19_07h06.02.681,dissOSARI,2023.2.3,Win32,60.60606061,,,,,,,,,,,,,,,,,,,,,,,,,,,,,,,,339.1693,340.0026,340.0026,341.0029,,,,,,0,0.5,,,,,,,,,,,,,,,,,,,,,,,,,,,,,,,,,,,,,,,,,,,,,,,,,,,,,0,29,29,30,1,,,,,,,,,,,,,,,,,,
,,,,,,,,Cascade,3,Female,Hispanic/Latino,NA,2024-12-19_07h06.02.681,dissOSARI,2023.2.3,Win32,60.60606061,,,,,,,,,,,,,,,,,,,,,,,,,,,,,,,,341.0034,341.7875,341.7875,342.788,,,,,,0,0.5,,,,,,,,,,,,,,,,,,,,,,,,,,,,,,,,,,,,,,,,,,,,,,,,,,,,,0,30,30,33,1,,,,,,,,,,,,,,,,,,
,,,,,,,,Cascade,3,Female,Hispanic/Latino,NA,2024-12-19_07h06.02.681,dissOSARI,2023.2.3,Win32,60.60606061,,,,,,,,,,,,,,,,,,,,,,,,,,,,,,,,342.7886,343.6726,343.6726,344.6727,,,,,,0,0.5,,,,,,,,,,,,,,,,,,,,,,,,,,,,,,,,,,,,,,,,,,,,,,,,,,,,,0,31,31,17,1,,,,,,,,,,,,,,,,,,
,,,,,,,,Cascade,3,Female,Hispanic/Latino,NA,2024-12-19_07h06.02.681,dissOSARI,2023.2.3,Win32,60.60606061,,,,,,,,,,,,,,,,,,,,,,,,,,,,,,,,344.6734,345.507,345.507,346.5078,,,,,,0,0.5,,,,,,,,,,,,,,,,,,,,,,,,,,,,,,,,,,,,,,,,,,,,,,,,,,,,,0,32,32,38,1,,,,,,,,,,,,,,,,,,
,,,,,,,,Cascade,3,Female,Hispanic/Latino,NA,2024-12-19_07h06.02.681,dissOSARI,2023.2.3,Win32,60.60606061,,,,,,,,,,,,,,,,,,,,,,,,,,,,,,,,346.5085,347.3757,347.3758,348.3758,,,,,,0,0.5,,,,,,,,,,,,,,,,,,,,,,,,,,,,,,,,,,,,,,,,,,,,,,,,,,,,,0,33,33,6,1,,,,,,,,,,,,,,,,,,
,,,,,,,,Cascade,3,Female,Hispanic/Latino,NA,2024-12-19_07h06.02.681,dissOSARI,2023.2.3,Win32,60.60606061,,,,,,,,,,,,,,,,,,,,,,,,,,,,,,,,348.3763,349.3936,349.3936,350.3939,,,,,,1,0.5,,,,,,,,,,,,,,,,,,,,,,,,,,,,,,,,,,,,,,,,,,,,,,,,,,,,,0,34,34,71,1,,,,,,,,,,,,,,,,,,
,,,,,,,,Cascade,3,Female,Hispanic/Latino,NA,2024-12-19_07h06.02.681,dissOSARI,2023.2.3,Win32,60.60606061,,,,,,,,,,,,,,,,,,,,,,,,,,,,,,,,350.3942,351.4119,351.4119,352.4124,,,,,,1,0.5,,,,,,,,,,,,,,,,,,,,,,,,,,,,,,,,,,,,,,,,,,,,,,,,,,,,,0,35,35,77,1,,,,,,,,,,,,,,,,,,
,,,,,,,,Cascade,3,Female,Hispanic/Latino,NA,2024-12-19_07h06.02.681,dissOSARI,2023.2.3,Win32,60.60606061,,,,,,,,,,,,,,,,,,,,,,,,,,,,,,,,352.413,353.4311,353.4312,354.431,,,,,,1,0.5,,,,,,,,,,,,,,,,,,,,,,,,,,,,,,,,,,,,,,,,,,,,,,,,,,,,,0,36,36,73,1,,,,,,,,,,,,,,,,,,
,,,,,,,,Cascade,3,Female,Hispanic/Latino,NA,2024-12-19_07h06.02.681,dissOSARI,2023.2.3,Win32,60.60606061,,,,,,,,,,,,,,,,,,,,,,,,,,,,,,,,354.4318,355.4491,355.4491,356.4497,,,,,,1,0.5,,,,,,,,,,,,,,,,,,,,,,,,,,,,,,,,,,,,,,,,,,,,,,,,,,,,,0,37,37,67,1,,,,,,,,,,,,,,,,,,
,,,,,,,,Cascade,3,Female,Hispanic/Latino,NA,2024-12-19_07h06.02.681,dissOSARI,2023.2.3,Win32,60.60606061,,,,,,,,,,,,,,,,,,,,,,,,,,,,,,,,356.451,357.4674,357.4675,358.4672,,,,,,1,0.5,,,,,,,,,,,,,,,,,,,,,,,,,,,,,,,,,,,,,,,,,,,,,,,,,,,,,0,38,38,76,1,,,,,,,,,,,,,,,,,,
,,,,,,,,Cascade,3,Female,Hispanic/Latino,NA,2024-12-19_07h06.02.681,dissOSARI,2023.2.3,Win32,60.60606061,,,,,,,,,,,,,,,,,,,,,,,,,,,,,,,,358.4679,359.2687,359.2688,360.2689,,,,,,0,0.5,,,,,,,,,,,,,,,,,,,,,,,,,,,,,,,,,,,,,,,,,,,,,,,,,,,,,0,39,39,31,1,,,,,,,,,,,,,,,,,,
,,,,,,,,Cascade,3,Female,Hispanic/Latino,NA,2024-12-19_07h06.02.681,dissOSARI,2023.2.3,Win32,60.60606061,,,,,,,,,,,,,,,,,,,,,,,,,,,,,,,,360.2698,361.0534,361.0534,362.0541,,,,,,0,0.5,,,,,,,,,,,,,,,,,,,,,,,,,,,,,,,,,,,,,,,,,,,,,,,,,,,,,0,40,40,10,1,,,,,,,,,,,,,,,,,,
,,,,,,,,Cascade,3,Female,Hispanic/Latino,NA,2024-12-19_07h06.02.681,dissOSARI,2023.2.3,Win32,60.60606061,,,,,,,,,,,,,,,,,,,,,,,,,,,,,,,,362.0554,362.8717,362.8717,363.8721,,,,,,0,0.5,,,,,,,,,,,,,,,,,,,,,,,,,,,,,,,,,,,,,,,,,,,,,,,,,,,,,0,41,41,12,1,,,,,,,,,,,,,,,,,,
,,,,,,,,Cascade,3,Female,Hispanic/Latino,NA,2024-12-19_07h06.02.681,dissOSARI,2023.2.3,Win32,60.60606061,,,,,,,,,,,,,,,,,,,,,,,,,,,,,,,,363.873,364.8903,364.8904,365.8905,,,,,,1,0.5,,,,,,,,,,,,,,,,,,,,,,,,,,,,,,,,,,,,,,,,,,,,,,,,,,,,,0,42,42,78,1,,,,,,,,,,,,,,,,,,
,,,,,,,,Cascade,3,Female,Hispanic/Latino,NA,2024-12-19_07h06.02.681,dissOSARI,2023.2.3,Win32,60.60606061,,,,,,,,,,,,,,,,,,,,,,,,,,,,,,,,365.8911,366.6916,366.6916,367.6922,,,,,,0,0.5,,,,,,,,,,,,,,,,,,,,,,,,,,,,,,,,,,,,,,,,,,,,,,,,,,,,,0,43,43,48,1,,,,,,,,,,,,,,,,,,
,,,,,,,,Cascade,3,Female,Hispanic/Latino,NA,2024-12-19_07h06.02.681,dissOSARI,2023.2.3,Win32,60.60606061,,,,,,,,,,,,,,,,,,,,,,,,,,,,,,,,367.6933,368.5098,368.5098,369.5099,,,,,,0,0.5,,,,,,,,,,,,,,,,,,,,,,,,,,,,,,,,,,,,,,,,,,,,,,,,,,,,,0,44,44,3,1,,,,,,,,,,,,,,,,,,
,,,,,,,,Cascade,3,Female,Hispanic/Latino,NA,2024-12-19_07h06.02.681,dissOSARI,2023.2.3,Win32,60.60606061,,,,,,,,,,,,,,,,,,,,,,,,,,,,,,,,369.5104,370.3946,370.3946,371.3951,,,,,,0,0.5,,,,,,,,,,,,,,,,,,,,,,,,,,,,,,,,,,,,,,,,,,,,,,,,,,,,,0,45,45,41,1,,,,,,,,,,,,,,,,,,
,,,,,,,,Cascade,3,Female,Hispanic/Latino,NA,2024-12-19_07h06.02.681,dissOSARI,2023.2.3,Win32,60.60606061,,,,,,,,,,,,,,,,,,,,,,,,,,,,,,,,371.3961,372.4133,372.4134,373.413,,,,,,1,0.5,,,,,,,,,,,,,,,,,,,,,,,,,,,,,,,,,,,,,,,,,,,,,,,,,,,,,0,46,46,66,1,,,,,,,,,,,,,,,,,,
,,,,,,,,Cascade,3,Female,Hispanic/Latino,NA,2024-12-19_07h06.02.681,dissOSARI,2023.2.3,Win32,60.60606061,,,,,,,,,,,,,,,,,,,,,,,,,,,,,,,,373.4135,374.3814,374.3814,375.3817,,,,,,0,0.5,,,,,,,,,,,,,,,,,,,,,,,,,,,,,,,,,,,,,,,,,,,,,,,,,,,,,0,47,47,25,1,,,,,,,,,,,,,,,,,,
,,,,,,,,Cascade,3,Female,Hispanic/Latino,NA,2024-12-19_07h06.02.681,dissOSARI,2023.2.3,Win32,60.60606061,,,,,,,,,,,,,,,,,,,,,,,,,,,,,,,,375.3827,376.3495,376.3495,377.3497,,,,,,0,0.5,,,,,,,,,,,,,,,,,,,,,,,,,,,,,,,,,,,,,,,,,,,,,,,,,,,,,0,48,48,50,1,,,,,,,,,,,,,,,,,,
,,,,,,,,Cascade,3,Female,Hispanic/Latino,NA,2024-12-19_07h06.02.681,dissOSARI,2023.2.3,Win32,60.60606061,,,,,,,,,,,,,,,,,,,,,,,,,,,,,,,,377.3508,378.3012,378.3012,379.3012,,,,,,0,0.5,,,,,,,,,,,,,,,,,,,,,,,,,,,,,,,,,,,,,,,,,,,,,,,,,,,,,0,49,49,42,1,,,,,,,,,,,,,,,,,,
,,,,,,,,Cascade,3,Female,Hispanic/Latino,NA,2024-12-19_07h06.02.681,dissOSARI,2023.2.3,Win32,60.60606061,,,,,,,,,,,,,,,,,,,,,,,,,,,,,,,,379.3014,380.3195,380.3196,381.3198,,,,,,1,0.5,,,,,,,,,,,,,,,,,,,,,,,,,,,,,,,,,,,,,,,,,,,,,,,,,,,,,0,50,50,68,1,,,,,,,,,,,,,,,,,,
,,,,,,,,Cascade,3,Female,Hispanic/Latino,NA,2024-12-19_07h06.02.681,dissOSARI,2023.2.3,Win32,60.60606061,,,,,,,,,,,,,,,,,,,,,,,,,,,,,,,,381.3204,382.1709,382.1709,383.1715,,,,,,1,0.5,,,,,,,,,,,,,,,,,,,,,,,,,,,,,,,,,,,,,,,,,,,,,,,,,,,,,0,51,51,65,1,,,,,,,,,,,,,,,,,,
,,,,,,,,Cascade,3,Female,Hispanic/Latino,NA,2024-12-19_07h06.02.681,dissOSARI,2023.2.3,Win32,60.60606061,,,,,,,,,,,,,,,,,,,,,,,,,,,,,,,,383.1723,384.0056,384.0057,385.0061,,,,,,0,0.5,,,,,,,,,,,,,,,,,,,,,,,,,,,,,,,,,,,,,,,,,,,,,,,,,,,,,0,52,52,19,1,,,,,,,,,,,,,,,,,,
,,,,,,,,Cascade,3,Female,Hispanic/Latino,NA,2024-12-19_07h06.02.681,dissOSARI,2023.2.3,Win32,60.60606061,,,,,,,,,,,,,,,,,,,,,,,,,,,,,,,,385.0068,385.8571,385.8571,386.8576,,,,,,0,0.5,,,,,,,,,,,,,,,,,,,,,,,,,,,,,,,,,,,,,,,,,,,,,,,,,,,,,0,53,53,4,1,,,,,,,,,,,,,,,,,,
,,,,,,,,Cascade,3,Female,Hispanic/Latino,NA,2024-12-19_07h06.02.681,dissOSARI,2023.2.3,Win32,60.60606061,,,,,,,,,,,,,,,,,,,,,,,,,,,,,,,,386.8581,387.8757,387.8758,388.8759,,,,,,1,0.5,,,,,,,,,,,,,,,,,,,,,,,,,,,,,,,,,,,,,,,,,,,,,,,,,,,,,0,54,54,74,1,,,,,,,,,,,,,,,,,,
,,,,,,,,Cascade,3,Female,Hispanic/Latino,NA,2024-12-19_07h06.02.681,dissOSARI,2023.2.3,Win32,60.60606061,,,,,,,,,,,,,,,,,,,,,,,,,,,,,,,,388.8766,389.7939,389.794,390.7942,,,,,,0,0.5,,,,,,,,,,,,,,,,,,,,,,,,,,,,,,,,,,,,,,,,,,,,,,,,,,,,,0,55,55,22,1,,,,,,,,,,,,,,,,,,
,,,,,,,,Cascade,3,Female,Hispanic/Latino,NA,2024-12-19_07h06.02.681,dissOSARI,2023.2.3,Win32,60.60606061,,,,,,,,,,,,,,,,,,,,,,,,,,,,,,,,390.7948,391.5788,391.5789,392.5791,,,,,,0,0.5,,,,,,,,,,,,,,,,,,,,,,,,,,,,,,,,,,,,,,,,,,,,,,,,,,,,,0,56,56,2,1,,,,,,,,,,,,,,,,,,
,,,,,,,,Cascade,3,Female,Hispanic/Latino,NA,2024-12-19_07h06.02.681,dissOSARI,2023.2.3,Win32,60.60606061,,,,,,,,,,,,,,,,,,,,,,,,,,,,,,,,392.5795,393.4305,393.4306,394.4305,,,,,,0,0.5,,,,,,,,,,,,,,,,,,,,,,,,,,,,,,,,,,,,,,,,,,,,,,,,,,,,,0,57,57,26,1,,,,,,,,,,,,,,,,,,
,,,,,,,,Cascade,3,Female,Hispanic/Latino,NA,2024-12-19_07h06.02.681,dissOSARI,2023.2.3,Win32,60.60606061,,,,,,,,,,,,,,,,,,,,,,,,,,,,,,,,394.4309,395.4486,395.4486,396.4491,,,,,,1,0.5,,,,,,,,,,,,,,,,,,,,,,,,,,,,,,,,,,,,,,,,,,,,,,,,,,,,,0,58,58,79,1,,,,,,,,,,,,,,,,,,
,,,,,,,,Cascade,3,Female,Hispanic/Latino,NA,2024-12-19_07h06.02.681,dissOSARI,2023.2.3,Win32,60.60606061,,,,,,,,,,,,,,,,,,,,,,,,,,,,,,,,396.45,397.4668,397.4668,398.4671,,,,,,1,0.5,,,,,,,,,,,,,,,,,,,,,,,,,,,,,,,,,,,,,,,,,,,,,,,,,,,,,0,59,59,61,1,,,,,,,,,,,,,,,,,,
,,,,,,,,Cascade,3,Female,Hispanic/Latino,NA,2024-12-19_07h06.02.681,dissOSARI,2023.2.3,Win32,60.60606061,,,,,,,,,,,,,,,,,,,,,,,,,,,,,,,,398.4675,399.5356,399.5356,400.5351,,,,,,1,0.5,,,,,,,,,,,,,,,,,,,,,,,,,,,,,,,,,,,,,,,,,,,,,,,,,,,,,0,60,60,72,1,,,,,,,,,,,,,,,,,,
,,,,,,,,Cascade,3,Female,Hispanic/Latino,NA,2024-12-19_07h06.02.681,dissOSARI,2023.2.3,Win32,60.60606061,,,,,,,,,,,,,,,,,,,,,,,,,,,,,,,,400.5355,401.5541,401.5542,402.554,,,,,,1,0.5,,,,,,,,,,,,,,,,,,,,,,,,,,,,,,,,,,,,,,,,,,,,,,,,,,,,,0,61,61,62,1,,,,,,,,,,,,,,,,,,
,,,,,,,,Cascade,3,Female,Hispanic/Latino,NA,2024-12-19_07h06.02.681,dissOSARI,2023.2.3,Win32,60.60606061,,,,,,,,,,,,,,,,,,,,,,,,,,,,,,,,402.5546,403.388,403.388,404.389,,,,,,0,0.5,,,,,,,,,,,,,,,,,,,,,,,,,,,,,,,,,,,,,,,,,,,,,,,,,,,,,0,62,62,47,1,,,,,,,,,,,,,,,,,,
,,,,,,,,Cascade,3,Female,Hispanic/Latino,NA,2024-12-19_07h06.02.681,dissOSARI,2023.2.3,Win32,60.60606061,,,,,,,,,,,,,,,,,,,,,,,,,,,,,,,,404.3899,405.2568,405.2568,406.2569,,,,,,0,0.5,,,,,,,,,,,,,,,,,,,,,,,,,,,,,,,,,,,,,,,,,,,,,,,,,,,,,0,63,63,9,1,,,,,,,,,,,,,,,,,,
,,,,,,,,Cascade,3,Female,Hispanic/Latino,NA,2024-12-19_07h06.02.681,dissOSARI,2023.2.3,Win32,60.60606061,,,,,,,,,,,,,,,,,,,,,,,,,,,,,,,,406.2573,407.1416,407.1416,408.1418,,,,,,0,0.5,,,,,,,,,,,,,,,,,,,,,,,,,,,,,,,,,,,,,,,,,,,,,,,,,,,,,0,64,64,37,1,,,,,,,,,,,,,,,,,,
,,,,,,,,Cascade,3,Female,Hispanic/Latino,NA,2024-12-19_07h06.02.681,dissOSARI,2023.2.3,Win32,60.60606061,,,,,,,,,,,,,,,,,,,,,,,,,,,,,,,,408.1421,409.0095,409.0096,410.0099,,,,,,0,0.5,,,,,,,,,,,,,,,,,,,,,,,,,,,,,,,,,,,,,,,,,,,,,,,,,,,,,0,65,65,58,1,,,,,,,,,,,,,,,,,,
,,,,,,,,Cascade,3,Female,Hispanic/Latino,NA,2024-12-19_07h06.02.681,dissOSARI,2023.2.3,Win32,60.60606061,,,,,,,,,,,,,,,,,,,,,,,,,,,,,,,,410.0103,410.8446,410.8447,411.8444,,,,,,0,0.5,,,,,,,,,,,,,,,,,,,,,,,,,,,,,,,,,,,,,,,,,,,,,,,,,,,,,0,66,66,13,1,,,,,,,,,,,,,,,,,,
,,,,,,,,Cascade,3,Female,Hispanic/Latino,NA,2024-12-19_07h06.02.681,dissOSARI,2023.2.3,Win32,60.60606061,,,,,,,,,,,,,,,,,,,,,,,,,,,,,,,,411.8447,412.6795,412.6795,413.68,,,,,,0,0.5,,,,,,,,,,,,,,,,,,,,,,,,,,,,,,,,,,,,,,,,,,,,,,,,,,,,,0,67,67,49,1,,,,,,,,,,,,,,,,,,
,,,,,,,,Cascade,3,Female,Hispanic/Latino,NA,2024-12-19_07h06.02.681,dissOSARI,2023.2.3,Win32,60.60606061,,,,,,,,,,,,,,,,,,,,,,,,,,,,,,,,413.681,414.5475,414.5475,415.5478,,,,,,0,0.5,,,,,,,,,,,,,,,,,,,,,,,,,,,,,,,,,,,,,,,,,,,,,,,,,,,,,0,68,68,21,1,,,,,,,,,,,,,,,,,,
,,,,,,,,Cascade,3,Female,Hispanic/Latino,NA,2024-12-19_07h06.02.681,dissOSARI,2023.2.3,Win32,60.60606061,,,,,,,,,,,,,,,,,,,,,,,,,,,,,,,,415.5482,416.5662,416.5662,417.5664,,,,,,1,0.5,,,,,,,,,,,,,,,,,,,,,,,,,,,,,,,,,,,,,,,,,,,,,,,,,,,,,0,69,69,64,1,,,,,,,,,,,,,,,,,,
,,,,,,,,Cascade,3,Female,Hispanic/Latino,NA,2024-12-19_07h06.02.681,dissOSARI,2023.2.3,Win32,60.60606061,,,,,,,,,,,,,,,,,,,,,,,,,,,,,,,,417.5673,418.3844,418.3844,419.3845,,,,,,0,0.5,,,,,,,,,,,,,,,,,,,,,,,,,,,,,,,,,,,,,,,,,,,,,,,,,,,,,0,70,70,0,1,,,,,,,,,,,,,,,,,,
,,,,,,,,Cascade,3,Female,Hispanic/Latino,NA,2024-12-19_07h06.02.681,dissOSARI,2023.2.3,Win32,60.60606061,,,,,,,,,,,,,,,,,,,,,,,,,,,,,,,,419.3853,420.4039,420.4039,421.4027,,,,,,1,0.5,,,,,,,,,,,,,,,,,,,,,,,,,,,,,,,,,,,,,,,,,,,,,,,,,,,,,0,71,71,63,1,,,,,,,,,,,,,,,,,,
,,,,,,,,Cascade,3,Female,Hispanic/Latino,NA,2024-12-19_07h06.02.681,dissOSARI,2023.2.3,Win32,60.60606061,,,,,,,,,,,,,,,,,,,,,,,,,,,,,,,,421.4033,422.2539,422.2539,423.2541,,,,,,0,0.5,,,,,,,,,,,,,,,,,,,,,,,,,,,,,,,,,,,,,,,,,,,,,,,,,,,,,0,72,72,51,1,,,,,,,,,,,,,,,,,,
,,,,,,,,Cascade,3,Female,Hispanic/Latino,NA,2024-12-19_07h06.02.681,dissOSARI,2023.2.3,Win32,60.60606061,,,,,,,,,,,,,,,,,,,,,,,,,,,,,,,,423.2545,424.1723,424.1723,425.1724,,,,,,0,0.5,,,,,,,,,,,,,,,,,,,,,,,,,,,,,,,,,,,,,,,,,,,,,,,,,,,,,0,73,73,52,1,,,,,,,,,,,,,,,,,,
,,,,,,,,Cascade,3,Female,Hispanic/Latino,NA,2024-12-19_07h06.02.681,dissOSARI,2023.2.3,Win32,60.60606061,,,,,,,,,,,,,,,,,,,,,,,,,,,,,,,,425.1729,425.9732,425.9733,426.9738,,,,,,0,0.5,,,,,,,,,,,,,,,,,,,,,,,,,,,,,,,,,,,,,,,,,,,,,,,,,,,,,0,74,74,57,1,,,,,,,,,,,,,,,,,,
,,,,,,,,Cascade,3,Female,Hispanic/Latino,NA,2024-12-19_07h06.02.681,dissOSARI,2023.2.3,Win32,60.60606061,,,,,,,,,,,,,,,,,,,,,,,,,,,,,,,,426.9741,427.9922,427.9922,428.9924,,,,,,1,0.5,,,,,,,,,,,,,,,,,,,,,,,,,,,,,,,,,,,,,,,,,,,,,,,,,,,,,0,75,75,69,1,,,,,,,,,,,,,,,,,,
,,,,,,,,Cascade,3,Female,Hispanic/Latino,NA,2024-12-19_07h06.02.681,dissOSARI,2023.2.3,Win32,60.60606061,,,,,,,,,,,,,,,,,,,,,,,,,,,,,,,,428.9928,429.8433,429.8433,430.844,,,,,,0,0.5,,,,,,,,,,,,,,,,,,,,,,,,,,,,,,,,,,,,,,,,,,,,,,,,,,,,,0,76,76,16,1,,,,,,,,,,,,,,,,,,
,,,,,,,,Cascade,3,Female,Hispanic/Latino,NA,2024-12-19_07h06.02.681,dissOSARI,2023.2.3,Win32,60.60606061,,,,,,,,,,,,,,,,,,,,,,,,,,,,,,,,430.8445,431.6617,431.6617,432.6621,,,,,,0,0.5,,,,,,,,,,,,,,,,,,,,,,,,,,,,,,,,,,,,,,,,,,,,,,,,,,,,,0,77,77,44,1,,,,,,,,,,,,,,,,,,
,,,,,,,,Cascade,3,Female,Hispanic/Latino,NA,2024-12-19_07h06.02.681,dissOSARI,2023.2.3,Win32,60.60606061,,,,,,,,,,,,,,,,,,,,,,,,,,,,,,,,432.6624,433.4968,433.4968,434.497,,,,,,0,0.5,,,,,,,,,,,,,,,,,,,,,,,,,,,,,,,,,,,,,,,,,,,,,,,,,,,,,0,78,78,59,1,,,,,,,,,,,,,,,,,,
,,,,,,,,Cascade,3,Female,Hispanic/Latino,NA,2024-12-19_07h06.02.681,dissOSARI,2023.2.3,Win32,60.60606061,,,,,,,,,,,,,,,,,,,,,,,,,,,,,,,,434.4973,435.348,435.348,436.3485,,,,,,0,0.5,,,,,,,,,,,,,,,,,,,,,,,,,,,,,,,,,,,,,,,,,,,,,,,,,,,,,0,79,79,36,1,,,,,,,,,,,,,,,,,,
,,,,,,,,Cascade,3,Female,Hispanic/Latino,NA,2024-12-19_07h06.02.681,dissOSARI,2023.2.3,Win32,60.60606061,,,,,,,,,,,,,,,,,,,,,,,,,,,,,,,,437.5517,439.1181,439.1181,440.1184,,,,,,0,0.5,,,,,,,,,,,,,,,,,,,,,,,,,,,,,,,,,,,,,,,,,,,,,,,,,,,436.3489,437.5494,0,0,0,58,1,,,,,,,,,,,,,,,,,,
,,,,,,,,Cascade,3,Female,Hispanic/Latino,NA,2024-12-19_07h06.02.681,dissOSARI,2023.2.3,Win32,60.60606061,,,,,,,,,,,,,,,,,,,,,,,,,,,,,,,,440.1186,442.3209,442.3209,443.3211,,,,,,0,0.5,,,,,,,,,,,,,,,,,,,,,,,,,,,,,,,,,,,,,,,,,,,,,,,,,,,,,0,1,1,52,1,,,,,,,,,,,,,,,,,,
,,,,,,,,Cascade,3,Female,Hispanic/Latino,NA,2024-12-19_07h06.02.681,dissOSARI,2023.2.3,Win32,60.60606061,,,,,,,,,,,,,,,,,,,,,,,,,,,,,,,,443.3216,444.5055,444.5055,445.5059,,,,,,1,0.5,,,,,,,,,,,,,,,,,,,,,,,,,,,,,,,,,,,,,,,,,,,,,,,,,,,,,0,2,2,76,1,,,,,,,,,,,,,,,,,,
,,,,,,,,Cascade,3,Female,Hispanic/Latino,NA,2024-12-19_07h06.02.681,dissOSARI,2023.2.3,Win32,60.60606061,,,,,,,,,,,,,,,,,,,,,,,,,,,,,,,,445.5062,446.3574,446.3574,447.3576,,,,,,0,0.5,,,,,,,,,,,,,,,,,,,,,,,,,,,,,,,,,,,,,,,,,,,,,,,,,,,,,0,3,3,36,1,,,,,,,,,,,,,,,,,,
,,,,,,,,Cascade,3,Female,Hispanic/Latino,NA,2024-12-19_07h06.02.681,dissOSARI,2023.2.3,Win32,60.60606061,,,,,,,,,,,,,,,,,,,,,,,,,,,,,,,,447.358,448.3759,448.3761,449.3758,,,,,,1,0.5,,,,,,,,,,,,,,,,,,,,,,,,,,,,,,,,,,,,,,,,,,,,,,,,,,,,,0,4,4,79,1,,,,,,,,,,,,,,,,,,
,,,,,,,,Cascade,3,Female,Hispanic/Latino,NA,2024-12-19_07h06.02.681,dissOSARI,2023.2.3,Win32,60.60606061,,,,,,,,,,,,,,,,,,,,,,,,,,,,,,,,449.3763,450.2437,450.2438,451.244,,,,,,0,0.5,,,,,,,,,,,,,,,,,,,,,,,,,,,,,,,,,,,,,,,,,,,,,,,,,,,,,0,5,5,15,1,,,,,,,,,,,,,,,,,,
,,,,,,,,Cascade,3,Female,Hispanic/Latino,NA,2024-12-19_07h06.02.681,dissOSARI,2023.2.3,Win32,60.60606061,,,,,,,,,,,,,,,,,,,,,,,,,,,,,,,,451.2444,452.0785,452.0786,453.0788,,,,,,0,0.5,,,,,,,,,,,,,,,,,,,,,,,,,,,,,,,,,,,,,,,,,,,,,,,,,,,,,0,6,6,30,1,,,,,,,,,,,,,,,,,,
,,,,,,,,Cascade,3,Female,Hispanic/Latino,NA,2024-12-19_07h06.02.681,dissOSARI,2023.2.3,Win32,60.60606061,,,,,,,,,,,,,,,,,,,,,,,,,,,,,,,,453.0791,453.8969,453.8969,454.8975,,,,,,0,0.5,,,,,,,,,,,,,,,,,,,,,,,,,,,,,,,,,,,,,,,,,,,,,,,,,,,,,0,7,7,4,1,,,,,,,,,,,,,,,,,,
,,,,,,,,Cascade,3,Female,Hispanic/Latino,NA,2024-12-19_07h06.02.681,dissOSARI,2023.2.3,Win32,60.60606061,,,,,,,,,,,,,,,,,,,,,,,,,,,,,,,,454.8982,455.9153,455.9154,456.9154,,,,,,1,0.5,,,,,,,,,,,,,,,,,,,,,,,,,,,,,,,,,,,,,,,,,,,,,,,,,,,,,0,8,8,64,1,,,,,,,,,,,,,,,,,,
,,,,,,,,Cascade,3,Female,Hispanic/Latino,NA,2024-12-19_07h06.02.681,dissOSARI,2023.2.3,Win32,60.60606061,,,,,,,,,,,,,,,,,,,,,,,,,,,,,,,,456.9157,457.7833,457.7834,458.7838,,,,,,0,0.5,,,,,,,,,,,,,,,,,,,,,,,,,,,,,,,,,,,,,,,,,,,,,,,,,,,,,0,9,9,22,1,,,,,,,,,,,,,,,,,,
,,,,,,,,Cascade,3,Female,Hispanic/Latino,NA,2024-12-19_07h06.02.681,dissOSARI,2023.2.3,Win32,60.60606061,,,,,,,,,,,,,,,,,,,,,,,,,,,,,,,,458.7842,459.635,459.635,460.6354,,,,,,0,0.5,,,,,,,,,,,,,,,,,,,,,,,,,,,,,,,,,,,,,,,,,,,,,,,,,,,,,0,10,10,33,1,,,,,,,,,,,,,,,,,,
,,,,,,,,Cascade,3,Female,Hispanic/Latino,NA,2024-12-19_07h06.02.681,dissOSARI,2023.2.3,Win32,60.60606061,,,,,,,,,,,,,,,,,,,,,,,,,,,,,,,,460.636,461.653,461.6531,462.6535,,,,,,1,0.5,,,,,,,,,,,,,,,,,,,,,,,,,,,,,,,,,,,,,,,,,,,,,,,,,,,,,0,11,11,74,1,,,,,,,,,,,,,,,,,,
,,,,,,,,Cascade,3,Female,Hispanic/Latino,NA,2024-12-19_07h06.02.681,dissOSARI,2023.2.3,Win32,60.60606061,,,,,,,,,,,,,,,,,,,,,,,,,,,,,,,,462.6539,463.5551,463.5551,464.5553,,,,,,0,0.5,,,,,,,,,,,,,,,,,,,,,,,,,,,,,,,,,,,,,,,,,,,,,,,,,,,,,0,12,12,48,1,,,,,,,,,,,,,,,,,,
,,,,,,,,Cascade,3,Female,Hispanic/Latino,NA,2024-12-19_07h06.02.681,dissOSARI,2023.2.3,Win32,60.60606061,,,,,,,,,,,,,,,,,,,,,,,,,,,,,,,,464.5557,465.5731,465.5731,466.5733,,,,,,1,0.5,,,,,,,,,,,,,,,,,,,,,,,,,,,,,,,,,,,,,,,,,,,,,,,,,,,,,0,13,13,73,1,,,,,,,,,,,,,,,,,,
,,,,,,,,Cascade,3,Female,Hispanic/Latino,NA,2024-12-19_07h06.02.681,dissOSARI,2023.2.3,Win32,60.60606061,,,,,,,,,,,,,,,,,,,,,,,,,,,,,,,,466.5736,467.3748,467.3749,468.3749,,,,,,0,0.5,,,,,,,,,,,,,,,,,,,,,,,,,,,,,,,,,,,,,,,,,,,,,,,,,,,,,0,14,14,10,1,,,,,,,,,,,,,,,,,,
,,,,,,,,Cascade,3,Female,Hispanic/Latino,NA,2024-12-19_07h06.02.681,dissOSARI,2023.2.3,Win32,60.60606061,,,,,,,,,,,,,,,,,,,,,,,,,,,,,,,,468.3752,469.2263,469.2264,470.2268,,,,,,0,0.5,,,,,,,,,,,,,,,,,,,,,,,,,,,,,,,,,,,,,,,,,,,,,,,,,,,,,0,15,15,56,1,,,,,,,,,,,,,,,,,,
,,,,,,,,Cascade,3,Female,Hispanic/Latino,NA,2024-12-19_07h06.02.681,dissOSARI,2023.2.3,Win32,60.60606061,,,,,,,,,,,,,,,,,,,,,,,,,,,,,,,,470.2274,471.078,471.078,472.0781,,,,,,0,0.5,,,,,,,,,,,,,,,,,,,,,,,,,,,,,,,,,,,,,,,,,,,,,,,,,,,,,0,16,16,41,1,,,,,,,,,,,,,,,,,,
,,,,,,,,Cascade,3,Female,Hispanic/Latino,NA,2024-12-19_07h06.02.681,dissOSARI,2023.2.3,Win32,60.60606061,,,,,,,,,,,,,,,,,,,,,,,,,,,,,,,,472.0784,472.9625,472.9626,473.963,,,,,,0,0.5,,,,,,,,,,,,,,,,,,,,,,,,,,,,,,,,,,,,,,,,,,,,,,,,,,,,,0,17,17,0,1,,,,,,,,,,,,,,,,,,
,,,,,,,,Cascade,3,Female,Hispanic/Latino,NA,2024-12-19_07h06.02.681,dissOSARI,2023.2.3,Win32,60.60606061,,,,,,,,,,,,,,,,,,,,,,,,,,,,,,,,473.9635,474.7978,474.7978,475.7979,,,,,,0,0.5,,,,,,,,,,,,,,,,,,,,,,,,,,,,,,,,,,,,,,,,,,,,,,,,,,,,,0,18,18,28,1,,,,,,,,,,,,,,,,,,
,,,,,,,,Cascade,3,Female,Hispanic/Latino,NA,2024-12-19_07h06.02.681,dissOSARI,2023.2.3,Win32,60.60606061,,,,,,,,,,,,,,,,,,,,,,,,,,,,,,,,475.7983,476.6327,476.6327,477.6327,,,,,,0,0.5,,,,,,,,,,,,,,,,,,,,,,,,,,,,,,,,,,,,,,,,,,,,,,,,,,,,,0,19,19,25,1,,,,,,,,,,,,,,,,,,
,,,,,,,,Cascade,3,Female,Hispanic/Latino,NA,2024-12-19_07h06.02.681,dissOSARI,2023.2.3,Win32,60.60606061,,,,,,,,,,,,,,,,,,,,,,,,,,,,,,,,477.6331,478.4675,478.4675,479.4675,,,,,,0,0.5,,,,,,,,,,,,,,,,,,,,,,,,,,,,,,,,,,,,,,,,,,,,,,,,,,,,,0,20,20,54,1,,,,,,,,,,,,,,,,,,
,,,,,,,,Cascade,3,Female,Hispanic/Latino,NA,2024-12-19_07h06.02.681,dissOSARI,2023.2.3,Win32,60.60606061,,,,,,,,,,,,,,,,,,,,,,,,,,,,,,,,479.4681,480.3025,480.3026,481.3027,,,,,,0,0.5,,,,,,,,,,,,,,,,,,,,,,,,,,,,,,,,,,,,,,,,,,,,,,,,,,,,,0,21,21,12,1,,,,,,,,,,,,,,,,,,
,,,,,,,,Cascade,3,Female,Hispanic/Latino,NA,2024-12-19_07h06.02.681,dissOSARI,2023.2.3,Win32,60.60606061,,,,,,,,,,,,,,,,,,,,,,,,,,,,,,,,481.3036,482.1037,482.1037,483.1038,,,,,,0,0.5,,,,,,,,,,,,,,,,,,,,,,,,,,,,,,,,,,,,,,,,,,,,,,,,,,,,,0,22,22,40,1,,,,,,,,,,,,,,,,,,
,,,,,,,,Cascade,3,Female,Hispanic/Latino,NA,2024-12-19_07h06.02.681,dissOSARI,2023.2.3,Win32,60.60606061,,,,,,,,,,,,,,,,,,,,,,,,,,,,,,,,483.1044,483.9387,483.9387,484.9387,,,,,,0,0.5,,,,,,,,,,,,,,,,,,,,,,,,,,,,,,,,,,,,,,,,,,,,,,,,,,,,,0,23,23,49,1,,,,,,,,,,,,,,,,,,
,,,,,,,,Cascade,3,Female,Hispanic/Latino,NA,2024-12-19_07h06.02.681,dissOSARI,2023.2.3,Win32,60.60606061,,,,,,,,,,,,,,,,,,,,,,,,,,,,,,,,484.9395,485.7568,485.7568,486.7575,,,,,,0,0.5,,,,,,,,,,,,,,,,,,,,,,,,,,,,,,,,,,,,,,,,,,,,,,,,,,,,,0,24,24,34,1,,,,,,,,,,,,,,,,,,
,,,,,,,,Cascade,3,Female,Hispanic/Latino,NA,2024-12-19_07h06.02.681,dissOSARI,2023.2.3,Win32,60.60606061,,,,,,,,,,,,,,,,,,,,,,,,,,,,,,,,486.7583,487.5415,487.5415,488.5421,,,,,,0,0.5,,,,,,,,,,,,,,,,,,,,,,,,,,,,,,,,,,,,,,,,,,,,,,,,,,,,,0,25,25,21,1,,,,,,,,,,,,,,,,,,
,,,,,,,,Cascade,3,Female,Hispanic/Latino,NA,2024-12-19_07h06.02.681,dissOSARI,2023.2.3,Win32,60.60606061,,,,,,,,,,,,,,,,,,,,,,,,,,,,,,,,488.543,489.3926,489.3926,490.3936,,,,,,0,0.5,,,,,,,,,,,,,,,,,,,,,,,,,,,,,,,,,,,,,,,,,,,,,,,,,,,,,0,26,26,29,1,,,,,,,,,,,,,,,,,,
,,,,,,,,Cascade,3,Female,Hispanic/Latino,NA,2024-12-19_07h06.02.681,dissOSARI,2023.2.3,Win32,60.60606061,,,,,,,,,,,,,,,,,,,,,,,,,,,,,,,,490.3949,491.2276,491.2276,492.2283,,,,,,0,0.5,,,,,,,,,,,,,,,,,,,,,,,,,,,,,,,,,,,,,,,,,,,,,,,,,,,,,0,27,27,43,1,,,,,,,,,,,,,,,,,,
,,,,,,,,Cascade,3,Female,Hispanic/Latino,NA,2024-12-19_07h06.02.681,dissOSARI,2023.2.3,Win32,60.60606061,,,,,,,,,,,,,,,,,,,,,,,,,,,,,,,,492.229,493.0795,493.0795,494.0797,,,,,,0,0.5,,,,,,,,,,,,,,,,,,,,,,,,,,,,,,,,,,,,,,,,,,,,,,,,,,,,,0,28,28,42,1,,,,,,,,,,,,,,,,,,
,,,,,,,,Cascade,3,Female,Hispanic/Latino,NA,2024-12-19_07h06.02.681,dissOSARI,2023.2.3,Win32,60.60606061,,,,,,,,,,,,,,,,,,,,,,,,,,,,,,,,494.0802,494.9143,494.9144,495.9146,,,,,,0,0.5,,,,,,,,,,,,,,,,,,,,,,,,,,,,,,,,,,,,,,,,,,,,,,,,,,,,,0,29,29,1,1,,,,,,,,,,,,,,,,,,
,,,,,,,,Cascade,3,Female,Hispanic/Latino,NA,2024-12-19_07h06.02.681,dissOSARI,2023.2.3,Win32,60.60606061,,,,,,,,,,,,,,,,,,,,,,,,,,,,,,,,495.9154,496.7323,496.7324,497.7328,,,,,,0,0.5,,,,,,,,,,,,,,,,,,,,,,,,,,,,,,,,,,,,,,,,,,,,,,,,,,,,,0,30,30,6,1,,,,,,,,,,,,,,,,,,
,,,,,,,,Cascade,3,Female,Hispanic/Latino,NA,2024-12-19_07h06.02.681,dissOSARI,2023.2.3,Win32,60.60606061,,,,,,,,,,,,,,,,,,,,,,,,,,,,,,,,497.7336,498.5839,498.584,499.5837,,,,,,0,0.5,,,,,,,,,,,,,,,,,,,,,,,,,,,,,,,,,,,,,,,,,,,,,,,,,,,,,0,31,31,5,1,,,,,,,,,,,,,,,,,,
,,,,,,,,Cascade,3,Female,Hispanic/Latino,NA,2024-12-19_07h06.02.681,dissOSARI,2023.2.3,Win32,60.60606061,,,,,,,,,,,,,,,,,,,,,,,,,,,,,,,,499.584,500.4017,500.4017,501.4022,,,,,,0,0.5,,,,,,,,,,,,,,,,,,,,,,,,,,,,,,,,,,,,,,,,,,,,,,,,,,,,,0,32,32,57,1,,,,,,,,,,,,,,,,,,
,,,,,,,,Cascade,3,Female,Hispanic/Latino,NA,2024-12-19_07h06.02.681,dissOSARI,2023.2.3,Win32,60.60606061,,,,,,,,,,,,,,,,,,,,,,,,,,,,,,,,501.4026,502.2702,502.2702,503.2707,,,,,,0,0.5,,,,,,,,,,,,,,,,,,,,,,,,,,,,,,,,,,,,,,,,,,,,,,,,,,,,,0,33,33,59,1,,,,,,,,,,,,,,,,,,
,,,,,,,,Cascade,3,Female,Hispanic/Latino,NA,2024-12-19_07h06.02.681,dissOSARI,2023.2.3,Win32,60.60606061,,,,,,,,,,,,,,,,,,,,,,,,,,,,,,,,503.271,504.1722,504.1722,505.1724,,,,,,0,0.5,,,,,,,,,,,,,,,,,,,,,,,,,,,,,,,,,,,,,,,,,,,,,,,,,,,,,0,34,34,37,1,,,,,,,,,,,,,,,,,,
,,,,,,,,Cascade,3,Female,Hispanic/Latino,NA,2024-12-19_07h06.02.681,dissOSARI,2023.2.3,Win32,60.60606061,,,,,,,,,,,,,,,,,,,,,,,,,,,,,,,,505.173,506.4906,506.4906,507.491,,,,,,1,0.5,,,,,,,,,,,,,,,,,,,,,,,,,,,,,,,,,,,,,,,,,,,,,,,,,,,,,0,35,35,65,1,,,,,,,,,,,,,,,,,,
,,,,,,,,Cascade,3,Female,Hispanic/Latino,NA,2024-12-19_07h06.02.681,dissOSARI,2023.2.3,Win32,60.60606061,,,,,,,,,,,,,,,,,,,,,,,,,,,,,,,,507.4914,508.559,508.5591,509.559,,,,,,0,0.5,,,,,,,,,,,,,,,,,,,,,,,,,,,,,,,,,,,,,,,,,,,,,,,,,,,,,0,36,36,19,1,,,,,,,,,,,,,,,,,,
,,,,,,,,Cascade,3,Female,Hispanic/Latino,NA,2024-12-19_07h06.02.681,dissOSARI,2023.2.3,Win32,60.60606061,,,,,,,,,,,,,,,,,,,,,,,,,,,,,,,,509.56,510.3604,510.3604,511.3605,,,,,,0,0.5,,,,,,,,,,,,,,,,,,,,,,,,,,,,,,,,,,,,,,,,,,,,,,,,,,,,,0,37,37,50,1,,,,,,,,,,,,,,,,,,
,,,,,,,,Cascade,3,Female,Hispanic/Latino,NA,2024-12-19_07h06.02.681,dissOSARI,2023.2.3,Win32,60.60606061,,,,,,,,,,,,,,,,,,,,,,,,,,,,,,,,511.3611,512.1784,512.1784,513.1785,,,,,,0,0.5,,,,,,,,,,,,,,,,,,,,,,,,,,,,,,,,,,,,,,,,,,,,,,,,,,,,,0,38,38,20,1,,,,,,,,,,,,,,,,,,
,,,,,,,,Cascade,3,Female,Hispanic/Latino,NA,2024-12-19_07h06.02.681,dissOSARI,2023.2.3,Win32,60.60606061,,,,,,,,,,,,,,,,,,,,,,,,,,,,,,,,513.1789,513.996,513.996,514.9966,,,,,,0,0.5,,,,,,,,,,,,,,,,,,,,,,,,,,,,,,,,,,,,,,,,,,,,,,,,,,,,,0,39,39,35,1,,,,,,,,,,,,,,,,,,
,,,,,,,,Cascade,3,Female,Hispanic/Latino,NA,2024-12-19_07h06.02.681,dissOSARI,2023.2.3,Win32,60.60606061,,,,,,,,,,,,,,,,,,,,,,,,,,,,,,,,514.997,516.0146,516.0146,517.0152,,,,,,1,0.5,,,,,,,,,,,,,,,,,,,,,,,,,,,,,,,,,,,,,,,,,,,,,,,,,,,,,0,40,40,71,1,,,,,,,,,,,,,,,,,,
,,,,,,,,Cascade,3,Female,Hispanic/Latino,NA,2024-12-19_07h06.02.681,dissOSARI,2023.2.3,Win32,60.60606061,,,,,,,,,,,,,,,,,,,,,,,,,,,,,,,,517.0158,517.8168,517.8168,518.8173,,,,,,0,0.5,,,,,,,,,,,,,,,,,,,,,,,,,,,,,,,,,,,,,,,,,,,,,,,,,,,,,0,41,41,11,1,,,,,,,,,,,,,,,,,,
,,,,,,,,Cascade,3,Female,Hispanic/Latino,NA,2024-12-19_07h06.02.681,dissOSARI,2023.2.3,Win32,60.60606061,,,,,,,,,,,,,,,,,,,,,,,,,,,,,,,,518.8182,519.618,519.6181,520.6183,,,,,,0,0.5,,,,,,,,,,,,,,,,,,,,,,,,,,,,,,,,,,,,,,,,,,,,,,,,,,,,,0,42,42,39,1,,,,,,,,,,,,,,,,,,
,,,,,,,,Cascade,3,Female,Hispanic/Latino,NA,2024-12-19_07h06.02.681,dissOSARI,2023.2.3,Win32,60.60606061,,,,,,,,,,,,,,,,,,,,,,,,,,,,,,,,520.6187,521.4697,521.4698,522.47,,,,,,0,0.5,,,,,,,,,,,,,,,,,,,,,,,,,,,,,,,,,,,,,,,,,,,,,,,,,,,,,0,43,43,51,1,,,,,,,,,,,,,,,,,,
,,,,,,,,Cascade,3,Female,Hispanic/Latino,NA,2024-12-19_07h06.02.681,dissOSARI,2023.2.3,Win32,60.60606061,,,,,,,,,,,,,,,,,,,,,,,,,,,,,,,,522.4706,523.3546,523.3546,524.3545,,,,,,0,0.5,,,,,,,,,,,,,,,,,,,,,,,,,,,,,,,,,,,,,,,,,,,,,,,,,,,,,0,44,44,14,1,,,,,,,,,,,,,,,,,,
,,,,,,,,Cascade,3,Female,Hispanic/Latino,NA,2024-12-19_07h06.02.681,dissOSARI,2023.2.3,Win32,60.60606061,,,,,,,,,,,,,,,,,,,,,,,,,,,,,,,,524.3549,525.373,525.373,526.3729,,,,,,1,0.5,,,,,,,,,,,,,,,,,,,,,,,,,,,,,,,,,,,,,,,,,,,,,,,,,,,,,0,45,45,67,1,,,,,,,,,,,,,,,,,,
,,,,,,,,Cascade,3,Female,Hispanic/Latino,NA,2024-12-19_07h06.02.681,dissOSARI,2023.2.3,Win32,60.60606061,,,,,,,,,,,,,,,,,,,,,,,,,,,,,,,,526.3732,527.2079,527.2079,528.2082,,,,,,0,0.5,,,,,,,,,,,,,,,,,,,,,,,,,,,,,,,,,,,,,,,,,,,,,,,,,,,,,0,46,46,45,1,,,,,,,,,,,,,,,,,,
,,,,,,,,Cascade,3,Female,Hispanic/Latino,NA,2024-12-19_07h06.02.681,dissOSARI,2023.2.3,Win32,60.60606061,,,,,,,,,,,,,,,,,,,,,,,,,,,,,,,,528.209,529.2262,529.2262,530.2262,,,,,,1,0.5,,,,,,,,,,,,,,,,,,,,,,,,,,,,,,,,,,,,,,,,,,,,,,,,,,,,,0,47,47,75,1,,,,,,,,,,,,,,,,,,
,,,,,,,,Cascade,3,Female,Hispanic/Latino,NA,2024-12-19_07h06.02.681,dissOSARI,2023.2.3,Win32,60.60606061,,,,,,,,,,,,,,,,,,,,,,,,,,,,,,,,530.2269,531.061,531.061,532.0608,,,,,,0,0.5,,,,,,,,,,,,,,,,,,,,,,,,,,,,,,,,,,,,,,,,,,,,,,,,,,,,,0,48,48,47,1,,,,,,,,,,,,,,,,,,
,,,,,,,,Cascade,3,Female,Hispanic/Latino,NA,2024-12-19_07h06.02.681,dissOSARI,2023.2.3,Win32,60.60606061,,,,,,,,,,,,,,,,,,,,,,,,,,,,,,,,532.0612,532.7623,532.7623,533.7624,,,,,,0,0.5,,,,,,,,,,,,,,,,,,,,,,,,,,,,,,,,,,,,,,,,,,,,,,,,,,,,,0,49,49,44,1,,,,,,,,,,,,,,,,,,
,,,,,,,,Cascade,3,Female,Hispanic/Latino,NA,2024-12-19_07h06.02.681,dissOSARI,2023.2.3,Win32,60.60606061,,,,,,,,,,,,,,,,,,,,,,,,,,,,,,,,533.7628,534.7796,534.7796,535.781,,,,,,1,0.5,,,,,,,,,,,,,,,,,,,,,,,,,,,,,,,,,,,,,,,,,,,,,,,,,,,,,0,50,50,72,1,,,,,,,,,,,,,,,,,,
,,,,,,,,Cascade,3,Female,Hispanic/Latino,NA,2024-12-19_07h06.02.681,dissOSARI,2023.2.3,Win32,60.60606061,,,,,,,,,,,,,,,,,,,,,,,,,,,,,,,,535.7816,536.7991,536.7991,537.7994,,,,,,1,0.5,,,,,,,,,,,,,,,,,,,,,,,,,,,,,,,,,,,,,,,,,,,,,,,,,,,,,0,51,51,69,1,,,,,,,,,,,,,,,,,,
,,,,,,,,Cascade,3,Female,Hispanic/Latino,NA,2024-12-19_07h06.02.681,dissOSARI,2023.2.3,Win32,60.60606061,,,,,,,,,,,,,,,,,,,,,,,,,,,,,,,,537.8002,538.6503,538.6503,539.6508,,,,,,0,0.5,,,,,,,,,,,,,,,,,,,,,,,,,,,,,,,,,,,,,,,,,,,,,,,,,,,,,0,52,52,13,1,,,,,,,,,,,,,,,,,,
,,,,,,,,Cascade,3,Female,Hispanic/Latino,NA,2024-12-19_07h06.02.681,dissOSARI,2023.2.3,Win32,60.60606061,,,,,,,,,,,,,,,,,,,,,,,,,,,,,,,,539.6516,540.4854,540.4854,541.4859,,,,,,0,0.5,,,,,,,,,,,,,,,,,,,,,,,,,,,,,,,,,,,,,,,,,,,,,,,,,,,,,0,53,53,23,1,,,,,,,,,,,,,,,,,,
,,,,,,,,Cascade,3,Female,Hispanic/Latino,NA,2024-12-19_07h06.02.681,dissOSARI,2023.2.3,Win32,60.60606061,,,,,,,,,,,,,,,,,,,,,,,,,,,,,,,,541.487,542.5037,542.5037,543.5041,,,,,,1,0.5,,,,,,,,,,,,,,,,,,,,,,,,,,,,,,,,,,,,,,,,,,,,,,,,,,,,,0,54,54,62,1,,,,,,,,,,,,,,,,,,
,,,,,,,,Cascade,3,Female,Hispanic/Latino,NA,2024-12-19_07h06.02.681,dissOSARI,2023.2.3,Win32,60.60606061,,,,,,,,,,,,,,,,,,,,,,,,,,,,,,,,543.5049,544.5222,544.5222,545.5223,,,,,,1,0.5,,,,,,,,,,,,,,,,,,,,,,,,,,,,,,,,,,,,,,,,,,,,,,,,,,,,,0,55,55,66,1,,,,,,,,,,,,,,,,,,
,,,,,,,,Cascade,3,Female,Hispanic/Latino,NA,2024-12-19_07h06.02.681,dissOSARI,2023.2.3,Win32,60.60606061,,,,,,,,,,,,,,,,,,,,,,,,,,,,,,,,545.5228,546.5405,546.5406,547.5403,,,,,,1,0.5,,,,,,,,,,,,,,,,,,,,,,,,,,,,,,,,,,,,,,,,,,,,,,,,,,,,,0,56,56,77,1,,,,,,,,,,,,,,,,,,
,,,,,,,,Cascade,3,Female,Hispanic/Latino,NA,2024-12-19_07h06.02.681,dissOSARI,2023.2.3,Win32,60.60606061,,,,,,,,,,,,,,,,,,,,,,,,,,,,,,,,547.5412,548.4586,548.4587,549.4593,,,,,,0,0.5,,,,,,,,,,,,,,,,,,,,,,,,,,,,,,,,,,,,,,,,,,,,,,,,,,,,,0,57,57,55,1,,,,,,,,,,,,,,,,,,
,,,,,,,,Cascade,3,Female,Hispanic/Latino,NA,2024-12-19_07h06.02.681,dissOSARI,2023.2.3,Win32,60.60606061,,,,,,,,,,,,,,,,,,,,,,,,,,,,,,,,549.4601,550.3268,550.3269,551.3272,,,,,,0,0.5,,,,,,,,,,,,,,,,,,,,,,,,,,,,,,,,,,,,,,,,,,,,,,,,,,,,,0,58,58,53,1,,,,,,,,,,,,,,,,,,
,,,,,,,,Cascade,3,Female,Hispanic/Latino,NA,2024-12-19_07h06.02.681,dissOSARI,2023.2.3,Win32,60.60606061,,,,,,,,,,,,,,,,,,,,,,,,,,,,,,,,551.3282,552.0949,552.095,553.0952,,,,,,0,0.5,,,,,,,,,,,,,,,,,,,,,,,,,,,,,,,,,,,,,,,,,,,,,,,,,,,,,0,59,59,46,1,,,,,,,,,,,,,,,,,,
,,,,,,,,Cascade,3,Female,Hispanic/Latino,NA,2024-12-19_07h06.02.681,dissOSARI,2023.2.3,Win32,60.60606061,,,,,,,,,,,,,,,,,,,,,,,,,,,,,,,,553.0959,553.9299,553.9299,554.9305,,,,,,0,0.5,,,,,,,,,,,,,,,,,,,,,,,,,,,,,,,,,,,,,,,,,,,,,,,,,,,,,0,60,60,32,1,,,,,,,,,,,,,,,,,,
,,,,,,,,Cascade,3,Female,Hispanic/Latino,NA,2024-12-19_07h06.02.681,dissOSARI,2023.2.3,Win32,60.60606061,,,,,,,,,,,,,,,,,,,,,,,,,,,,,,,,554.931,555.6814,555.6815,556.6818,,,,,,0,0.5,,,,,,,,,,,,,,,,,,,,,,,,,,,,,,,,,,,,,,,,,,,,,,,,,,,,,0,61,61,16,1,,,,,,,,,,,,,,,,,,
,,,,,,,,Cascade,3,Female,Hispanic/Latino,NA,2024-12-19_07h06.02.681,dissOSARI,2023.2.3,Win32,60.60606061,,,,,,,,,,,,,,,,,,,,,,,,,,,,,,,,556.6827,557.6998,557.6998,558.7,,,,,,1,0.5,,,,,,,,,,,,,,,,,,,,,,,,,,,,,,,,,,,,,,,,,,,,,,,,,,,,,0,62,62,78,1,,,,,,,,,,,,,,,,,,
,,,,,,,,Cascade,3,Female,Hispanic/Latino,NA,2024-12-19_07h06.02.681,dissOSARI,2023.2.3,Win32,60.60606061,,,,,,,,,,,,,,,,,,,,,,,,,,,,,,,,558.7008,559.5844,559.5844,560.5848,,,,,,0,0.5,,,,,,,,,,,,,,,,,,,,,,,,,,,,,,,,,,,,,,,,,,,,,,,,,,,,,0,63,63,17,1,,,,,,,,,,,,,,,,,,
,,,,,,,,Cascade,3,Female,Hispanic/Latino,NA,2024-12-19_07h06.02.681,dissOSARI,2023.2.3,Win32,60.60606061,,,,,,,,,,,,,,,,,,,,,,,,,,,,,,,,560.5859,561.4358,561.4358,562.4365,,,,,,0,0.5,,,,,,,,,,,,,,,,,,,,,,,,,,,,,,,,,,,,,,,,,,,,,,,,,,,,,0,64,64,8,1,,,,,,,,,,,,,,,,,,
,,,,,,,,Cascade,3,Female,Hispanic/Latino,NA,2024-12-19_07h06.02.681,dissOSARI,2023.2.3,Win32,60.60606061,,,,,,,,,,,,,,,,,,,,,,,,,,,,,,,,562.4374,563.2372,563.2372,564.2378,,,,,,0,0.5,,,,,,,,,,,,,,,,,,,,,,,,,,,,,,,,,,,,,,,,,,,,,,,,,,,,,0,65,65,26,1,,,,,,,,,,,,,,,,,,
,,,,,,,,Cascade,3,Female,Hispanic/Latino,NA,2024-12-19_07h06.02.681,dissOSARI,2023.2.3,Win32,60.60606061,,,,,,,,,,,,,,,,,,,,,,,,,,,,,,,,564.2387,565.0382,565.0383,566.0396,,,,,,0,0.5,,,,,,,,,,,,,,,,,,,,,,,,,,,,,,,,,,,,,,,,,,,,,,,,,,,,,0,66,66,3,1,,,,,,,,,,,,,,,,,,
,,,,,,,,Cascade,3,Female,Hispanic/Latino,NA,2024-12-19_07h06.02.681,dissOSARI,2023.2.3,Win32,60.60606061,,,,,,,,,,,,,,,,,,,,,,,,,,,,,,,,566.0405,566.8571,566.8571,567.8575,,,,,,0,0.5,,,,,,,,,,,,,,,,,,,,,,,,,,,,,,,,,,,,,,,,,,,,,,,,,,,,,0,67,67,7,1,,,,,,,,,,,,,,,,,,
,,,,,,,,Cascade,3,Female,Hispanic/Latino,NA,2024-12-19_07h06.02.681,dissOSARI,2023.2.3,Win32,60.60606061,,,,,,,,,,,,,,,,,,,,,,,,,,,,,,,,567.8583,568.8753,568.8754,569.8759,,,,,,1,0.5,,,,,,,,,,,,,,,,,,,,,,,,,,,,,,,,,,,,,,,,,,,,,,,,,,,,,0,68,68,61,1,,,,,,,,,,,,,,,,,,
,,,,,,,,Cascade,3,Female,Hispanic/Latino,NA,2024-12-19_07h06.02.681,dissOSARI,2023.2.3,Win32,60.60606061,,,,,,,,,,,,,,,,,,,,,,,,,,,,,,,,569.8766,570.6938,570.6938,571.6938,,,,,,0,0.5,,,,,,,,,,,,,,,,,,,,,,,,,,,,,,,,,,,,,,,,,,,,,,,,,,,,,0,69,69,38,1,,,,,,,,,,,,,,,,,,
,,,,,,,,Cascade,3,Female,Hispanic/Latino,NA,2024-12-19_07h06.02.681,dissOSARI,2023.2.3,Win32,60.60606061,,,,,,,,,,,,,,,,,,,,,,,,,,,,,,,,571.6945,572.5452,572.5452,573.5454,,,,,,0,0.5,,,,,,,,,,,,,,,,,,,,,,,,,,,,,,,,,,,,,,,,,,,,,,,,,,,,,0,70,70,27,1,,,,,,,,,,,,,,,,,,
,,,,,,,,Cascade,3,Female,Hispanic/Latino,NA,2024-12-19_07h06.02.681,dissOSARI,2023.2.3,Win32,60.60606061,,,,,,,,,,,,,,,,,,,,,,,,,,,,,,,,573.5461,574.5635,574.5635,575.5638,,,,,,1,0.5,,,,,,,,,,,,,,,,,,,,,,,,,,,,,,,,,,,,,,,,,,,,,,,,,,,,,0,71,71,63,1,,,,,,,,,,,,,,,,,,
,,,,,,,,Cascade,3,Female,Hispanic/Latino,NA,2024-12-19_07h06.02.681,dissOSARI,2023.2.3,Win32,60.60606061,,,,,,,,,,,,,,,,,,,,,,,,,,,,,,,,575.5647,576.5821,576.5822,577.5821,,,,,,1,0.5,,,,,,,,,,,,,,,,,,,,,,,,,,,,,,,,,,,,,,,,,,,,,,,,,,,,,0,72,72,70,1,,,,,,,,,,,,,,,,,,
,,,,,,,,Cascade,3,Female,Hispanic/Latino,NA,2024-12-19_07h06.02.681,dissOSARI,2023.2.3,Win32,60.60606061,,,,,,,,,,,,,,,,,,,,,,,,,,,,,,,,577.5831,578.5334,578.5334,579.5338,,,,,,0,0.5,,,,,,,,,,,,,,,,,,,,,,,,,,,,,,,,,,,,,,,,,,,,,,,,,,,,,0,73,73,24,1,,,,,,,,,,,,,,,,,,
,,,,,,,,Cascade,3,Female,Hispanic/Latino,NA,2024-12-19_07h06.02.681,dissOSARI,2023.2.3,Win32,60.60606061,,,,,,,,,,,,,,,,,,,,,,,,,,,,,,,,579.5345,580.4185,580.4185,581.4183,,,,,,0,0.5,,,,,,,,,,,,,,,,,,,,,,,,,,,,,,,,,,,,,,,,,,,,,,,,,,,,,0,74,74,9,1,,,,,,,,,,,,,,,,,,
,,,,,,,,Cascade,3,Female,Hispanic/Latino,NA,2024-12-19_07h06.02.681,dissOSARI,2023.2.3,Win32,60.60606061,,,,,,,,,,,,,,,,,,,,,,,,,,,,,,,,581.419,582.4363,582.4363,583.4368,,,,,,1,0.5,,,,,,,,,,,,,,,,,,,,,,,,,,,,,,,,,,,,,,,,,,,,,,,,,,,,,0,75,75,60,1,,,,,,,,,,,,,,,,,,
,,,,,,,,Cascade,3,Female,Hispanic/Latino,NA,2024-12-19_07h06.02.681,dissOSARI,2023.2.3,Win32,60.60606061,,,,,,,,,,,,,,,,,,,,,,,,,,,,,,,,583.4375,584.2548,584.2548,585.2551,,,,,,0,0.5,,,,,,,,,,,,,,,,,,,,,,,,,,,,,,,,,,,,,,,,,,,,,,,,,,,,,0,76,76,31,1,,,,,,,,,,,,,,,,,,
,,,,,,,,Cascade,3,Female,Hispanic/Latino,NA,2024-12-19_07h06.02.681,dissOSARI,2023.2.3,Win32,60.60606061,,,,,,,,,,,,,,,,,,,,,,,,,,,,,,,,585.2554,586.274,586.274,587.2738,,,,,,1,0.5,,,,,,,,,,,,,,,,,,,,,,,,,,,,,,,,,,,,,,,,,,,,,,,,,,,,,0,77,77,68,1,,,,,,,,,,,,,,,,,,
,,,,,,,,Cascade,3,Female,Hispanic/Latino,NA,2024-12-19_07h06.02.681,dissOSARI,2023.2.3,Win32,60.60606061,,,,,,,,,,,,,,,,,,,,,,,,,,,,,,,,587.2748,588.2917,588.2917,589.2922,,,,,,0,0.5,,,,,,,,,,,,,,,,,,,,,,,,,,,,,,,,,,,,,,,,,,,,,,,,,,,,,0,78,78,18,1,,,,,,,,,,,,,,,,,,
,,,,,,,,Cascade,3,Female,Hispanic/Latino,NA,2024-12-19_07h06.02.681,dissOSARI,2023.2.3,Win32,60.60606061,,,,,,,,,,,,,,,,,,,,,,,,,,,,,,,,589.2931,590.0927,590.0928,591.0932,,,,,,0,0.5,,,,,,,,,,,,,,,,,,,,,,,,,,,,,,,,,,,,,,,,,,,,,,,,,,,,,0,79,79,2,1,,,,,,,,,,,,,,,,,,
,,,,,,,,Cascade,3,Female,Hispanic/Latino,NA,2024-12-19_07h06.02.681,dissOSARI,2023.2.3,Win32,60.60606061,,,,,,,,,,,,,,,,,,,,,,,,,,,,,,,,,,,,,,,,,,,,,,,,,,,,,,,,,,,,,,,,,,,,,,,,,,,,,,,,,,,,,,,,,,,,,,,,,,,,591.094,595.2642,,0.114242193,-0.148134044,1,0,0,2.4195,EndFatigue,,,,,,,,
,,,,,,,,Cascade,3,Female,Hispanic/Latino,NA,2024-12-19_07h06.02.681,dissOSARI,2023.2.3,Win32,60.60606061,,,,,,,,,,,,,,,,,,,,,,,,,,,,,,,,,,,,,,,,,,,,,,,,,,,,,,,,,,,,,,,,,,,,,,,,,,,,,,,,,,,,,,,,,,,,,,,,,,,,,,,,,,,,,,595.2645,1158.7635,-0.331302361,0.186214775,1,0,0,563.498