welcome.started,welcome.stopped,WelcomeClick.x,WelcomeClick.y,WelcomeClick.leftButton,WelcomeClick.midButton,WelcomeClick.rightButton,WelcomeClick.time,participant,week,gender,race/ ethnicity,cognitive health history,date,expName,psychopyVersion,OS,frameRate,intro.started,intro.stopped,readyClick.x,readyClick.y,readyClick.leftButton,readyClick.midButton,readyClick.rightButton,practGoInst.started,practGoInst.stopped,PractGoClick.x,PractGoClick.y,PractGoClick.leftButton,PractGoClick.midButton,PractGoClick.rightButton,PractGoClick.time,practGoInst2.started,practGoInst2.stopped,PractGo2Click.x,PractGo2Click.y,PractGo2Click.leftButton,PractGo2Click.midButton,PractGo2Click.rightButton,PractGo2Click.time,practGoInst3.started,practGoInst3.stopped,PractGo3Click.x,PractGo3Click.y,PractGo3Click.leftButton,PractGo3Click.midButton,PractGo3Click.rightButton,PractGo3Click.time,trial.started,trial.stopped,feedback.started,feedback.stopped,practGo.thisRepN,practGo.thisTrialN,practGo.thisN,practGo.thisIndex,practGo.ran,Signal,fixedStopTime,testGoInst.started,testGoInst.stopped,GoTestClick.x,GoTestClick.y,GoTestClick.leftButton,GoTestClick.midButton,GoTestClick.rightButton,GoTestClick.time,TestGo.thisRepN,TestGo.thisTrialN,TestGo.thisN,TestGo.thisIndex,TestGo.ran,mixPractIntro.started,mixPractIntro.stopped,MixIntroClick.x,MixIntroClick.y,MixIntroClick.leftButton,MixIntroClick.midButton,MixIntroClick.rightButton,MixIntroClick.time,mixPractInst.started,mixPractInst.stopped,StopInstClick.x,StopInstClick.y,StopInstClick.leftButton,StopInstClick.midButton,StopInstClick.rightButton,StopInstClick.time,mixPractInst2.started,mixPractInst2.stopped,PractStop2Click.x,PractStop2Click.y,PractStop2Click.leftButton,PractStop2Click.midButton,PractStop2Click.rightButton,PractStop2Click.time,mixPractInst3.started,mixPractInst3.stopped,PractStop3Click.x,PractStop3Click.y,PractStop3Click.leftButton,PractStop3Click.midButton,PractStop3Click.rightButton,PractStop3Click.time,mixPract.thisRepN,mixPract.thisTrialN,mixPract.thisN,mixPract.thisIndex,mixPract.ran,breakResetTrial.started,breakResetTrial.stopped,trials.thisRepN,trials.thisTrialN,trials.thisN,trials.thisIndex,trials.ran,MentalFatigue.started,MentalFatigue.stopped,textbox.text,EndClick.x,EndClick.y,EndClick.leftButton,EndClick.midButton,EndClick.rightButton,EndClick.time,EndClick.clicked_name,end.started,end.stopped,mouse_2.x,mouse_2.y,mouse_2.leftButton,mouse_2.midButton,mouse_2.rightButton,mouse_2.time
0.0001,11.7578,-0.042030135,-0.131245044,1,0,0,11.4935,Harbor,3,Female,Hispanic/Latino,N/A,2024-12-20_19h06.22.130,dissOSARI,2023.2.3,Win32,59.52380952,,,,,,,,,,,,,,,,,,,,,,,,,,,,,,,,,,,,,,,,,,,,,,,,,,,,,,,,,,,,,,,,,,,,,,,,,,,,,,,,,,,,,,,,,,,,,,,,,,,,,,,,,,,,,,,,,,,,,
,,,,,,,,Harbor,3,Female,Hispanic/Latino,N/A,2024-12-20_19h06.22.130,dissOSARI,2023.2.3,Win32,59.52380952,11.7581,16.6287,-0.042030135,-0.131245044,1,0,0,,,,,,,,,,,,,,,,,,,,,,,,,,,,,,,,,,,,,,,,,,,,,,,,,,,,,,,,,,,,,,,,,,,,,,,,,,,,,,,,,,,,,,,,,,,,,,,,,,,,,,,,,,,,,,
,,,,,,,,Harbor,3,Female,Hispanic/Latino,N/A,2024-12-20_19h06.22.130,dissOSARI,2023.2.3,Win32,59.52380952,,,,,,,,16.6292,552.2024,-0.030927835,-0.104282316,1,0,0,535.3067,,,,,,,,,,,,,,,,,,,,,,,,,,,,,,,,,,,,,,,,,,,,,,,,,,,,,,,,,,,,,,,,,,,,,,,,,,,,,,,,,,,,,,,,,,,,,,,,,,,,,,
,,,,,,,,Harbor,3,Female,Hispanic/Latino,N/A,2024-12-20_19h06.22.130,dissOSARI,2023.2.3,Win32,59.52380952,,,,,,,,,,,,,,,,552.2025,552.9578,-0.030927835,-0.104282316,1,0,0,0.4995,,,,,,,,,,,,,,,,,,,,,,,,,,,,,,,,,,,,,,,,,,,,,,,,,,,,,,,,,,,,,,,,,,,,,,,,,,,,,,,,,,,,,,,,,,,,,,
,,,,,,,,Harbor,3,Female,Hispanic/Latino,N/A,2024-12-20_19h06.22.130,dissOSARI,2023.2.3,Win32,59.52380952,,,,,,,,,,,,,,,,,,,,,,,,552.9579,554.0447,-0.030927835,-0.104282316,1,0,0,0.8244,,,,,,,,,,,,,,,,,,,,,,,,,,,,,,,,,,,,,,,,,,,,,,,,,,,,,,,,,,,,,,,,,,,,,,,,,,,,,,,,,,,,,,
,,,,,,,,Harbor,3,Female,Hispanic/Latino,N/A,2024-12-20_19h06.22.130,dissOSARI,2023.2.3,Win32,59.52380952,,,,,,,,,,,,,,,,,,,,,,,,,,,,,,,,554.0465,556.3123,556.3125,557.3115,0,0,0,3,1,0,0.5,,,,,,,,,,,,,,,,,,,,,,,,,,,,,,,,,,,,,,,,,,,,,,,,,,,,,,,,,,,,,,,,,,,,,,,,,,,
,,,,,,,,Harbor,3,Female,Hispanic/Latino,N/A,2024-12-20_19h06.22.130,dissOSARI,2023.2.3,Win32,59.52380952,,,,,,,,,,,,,,,,,,,,,,,,,,,,,,,,557.3118,559.6147,559.6148,560.6153,0,1,1,2,1,0,0.5,,,,,,,,,,,,,,,,,,,,,,,,,,,,,,,,,,,,,,,,,,,,,,,,,,,,,,,,,,,,,,,,,,,,,,,,,,,
,,,,,,,,Harbor,3,Female,Hispanic/Latino,N/A,2024-12-20_19h06.22.130,dissOSARI,2023.2.3,Win32,59.52380952,,,,,,,,,,,,,,,,,,,,,,,,,,,,,,,,560.6155,561.7839,561.7839,562.7783,0,2,2,1,1,0,0.5,,,,,,,,,,,,,,,,,,,,,,,,,,,,,,,,,,,,,,,,,,,,,,,,,,,,,,,,,,,,,,,,,,,,,,,,,,,
,,,,,,,,Harbor,3,Female,Hispanic/Latino,N/A,2024-12-20_19h06.22.130,dissOSARI,2023.2.3,Win32,59.52380952,,,,,,,,,,,,,,,,,,,,,,,,,,,,,,,,562.7787,563.8955,563.8956,564.8972,0,3,3,4,1,0,0.5,,,,,,,,,,,,,,,,,,,,,,,,,,,,,,,,,,,,,,,,,,,,,,,,,,,,,,,,,,,,,,,,,,,,,,,,,,,
,,,,,,,,Harbor,3,Female,Hispanic/Latino,N/A,2024-12-20_19h06.22.130,dissOSARI,2023.2.3,Win32,59.52380952,,,,,,,,,,,,,,,,,,,,,,,,,,,,,,,,564.8975,565.8983,565.8984,566.8998,0,4,4,0,1,0,0.5,,,,,,,,,,,,,,,,,,,,,,,,,,,,,,,,,,,,,,,,,,,,,,,,,,,,,,,,,,,,,,,,,,,,,,,,,,,
,,,,,,,,Harbor,3,Female,Hispanic/Latino,N/A,2024-12-20_19h06.22.130,dissOSARI,2023.2.3,Win32,59.52380952,,,,,,,,,,,,,,,,,,,,,,,,,,,,,,,,,,,,,,,,,,,566.9007,568.3495,0.096748612,-0.026566217,1,0,0,0.6825,,,,,,,,,,,,,,,,,,,,,,,,,,,,,,,,,,,,,,,,,,,,,,,,,,,,,,,,,,,,,,,,,,,
,,,,,,,,Harbor,3,Female,Hispanic/Latino,N/A,2024-12-20_19h06.22.130,dissOSARI,2023.2.3,Win32,59.52380952,,,,,,,,,,,,,,,,,,,,,,,,,,,,,,,,568.351,569.7837,569.7837,570.7843,,,,,,0,0.5,,,,,,,,,0,0,0,21,1,,,,,,,,,,,,,,,,,,,,,,,,,,,,,,,,,,,,,,,,,,,,,,,,,,,,,,,,,,,,,,
,,,,,,,,Harbor,3,Female,Hispanic/Latino,N/A,2024-12-20_19h06.22.130,dissOSARI,2023.2.3,Win32,59.52380952,,,,,,,,,,,,,,,,,,,,,,,,,,,,,,,,570.7846,573.2209,573.2209,574.2226,,,,,,0,0.5,,,,,,,,,0,1,1,15,1,,,,,,,,,,,,,,,,,,,,,,,,,,,,,,,,,,,,,,,,,,,,,,,,,,,,,,,,,,,,,,
,,,,,,,,Harbor,3,Female,Hispanic/Latino,N/A,2024-12-20_19h06.22.130,dissOSARI,2023.2.3,Win32,59.52380952,,,,,,,,,,,,,,,,,,,,,,,,,,,,,,,,574.2234,617.4911,617.4911,618.4915,,,,,,0,0.5,,,,,,,,,0,2,2,29,1,,,,,,,,,,,,,,,,,,,,,,,,,,,,,,,,,,,,,,,,,,,,,,,,,,,,,,,,,,,,,,
,,,,,,,,Harbor,3,Female,Hispanic/Latino,N/A,2024-12-20_19h06.22.130,dissOSARI,2023.2.3,Win32,59.52380952,,,,,,,,,,,,,,,,,,,,,,,,,,,,,,,,618.4923,619.6088,619.6088,620.6099,,,,,,0,0.5,,,,,,,,,0,3,3,17,1,,,,,,,,,,,,,,,,,,,,,,,,,,,,,,,,,,,,,,,,,,,,,,,,,,,,,,,,,,,,,,
,,,,,,,,Harbor,3,Female,Hispanic/Latino,N/A,2024-12-20_19h06.22.130,dissOSARI,2023.2.3,Win32,59.52380952,,,,,,,,,,,,,,,,,,,,,,,,,,,,,,,,620.6107,621.6439,621.6439,622.6454,,,,,,0,0.5,,,,,,,,,0,4,4,39,1,,,,,,,,,,,,,,,,,,,,,,,,,,,,,,,,,,,,,,,,,,,,,,,,,,,,,,,,,,,,,,
,,,,,,,,Harbor,3,Female,Hispanic/Latino,N/A,2024-12-20_19h06.22.130,dissOSARI,2023.2.3,Win32,59.52380952,,,,,,,,,,,,,,,,,,,,,,,,,,,,,,,,622.6459,623.6792,623.6792,624.6802,,,,,,0,0.5,,,,,,,,,0,5,5,23,1,,,,,,,,,,,,,,,,,,,,,,,,,,,,,,,,,,,,,,,,,,,,,,,,,,,,,,,,,,,,,,
,,,,,,,,Harbor,3,Female,Hispanic/Latino,N/A,2024-12-20_19h06.22.130,dissOSARI,2023.2.3,Win32,59.52380952,,,,,,,,,,,,,,,,,,,,,,,,,,,,,,,,624.6809,625.4972,625.4972,626.4981,,,,,,0,0.5,,,,,,,,,0,6,6,37,1,,,,,,,,,,,,,,,,,,,,,,,,,,,,,,,,,,,,,,,,,,,,,,,,,,,,,,,,,,,,,,
,,,,,,,,Harbor,3,Female,Hispanic/Latino,N/A,2024-12-20_19h06.22.130,dissOSARI,2023.2.3,Win32,59.52380952,,,,,,,,,,,,,,,,,,,,,,,,,,,,,,,,626.4986,627.515,627.515,628.515,,,,,,0,0.5,,,,,,,,,0,7,7,33,1,,,,,,,,,,,,,,,,,,,,,,,,,,,,,,,,,,,,,,,,,,,,,,,,,,,,,,,,,,,,,,
,,,,,,,,Harbor,3,Female,Hispanic/Latino,N/A,2024-12-20_19h06.22.130,dissOSARI,2023.2.3,Win32,59.52380952,,,,,,,,,,,,,,,,,,,,,,,,,,,,,,,,628.5152,629.5331,629.5331,630.535,,,,,,0,0.5,,,,,,,,,0,8,8,43,1,,,,,,,,,,,,,,,,,,,,,,,,,,,,,,,,,,,,,,,,,,,,,,,,,,,,,,,,,,,,,,
,,,,,,,,Harbor,3,Female,Hispanic/Latino,N/A,2024-12-20_19h06.22.130,dissOSARI,2023.2.3,Win32,59.52380952,,,,,,,,,,,,,,,,,,,,,,,,,,,,,,,,630.5356,631.6019,631.602,632.6035,,,,,,0,0.5,,,,,,,,,0,9,9,1,1,,,,,,,,,,,,,,,,,,,,,,,,,,,,,,,,,,,,,,,,,,,,,,,,,,,,,,,,,,,,,,
,,,,,,,,Harbor,3,Female,Hispanic/Latino,N/A,2024-12-20_19h06.22.130,dissOSARI,2023.2.3,Win32,59.52380952,,,,,,,,,,,,,,,,,,,,,,,,,,,,,,,,632.6042,633.8374,633.8374,634.8389,,,,,,0,0.5,,,,,,,,,0,10,10,41,1,,,,,,,,,,,,,,,,,,,,,,,,,,,,,,,,,,,,,,,,,,,,,,,,,,,,,,,,,,,,,,
,,,,,,,,Harbor,3,Female,Hispanic/Latino,N/A,2024-12-20_19h06.22.130,dissOSARI,2023.2.3,Win32,59.52380952,,,,,,,,,,,,,,,,,,,,,,,,,,,,,,,,634.8393,642.928,642.928,643.9302,,,,,,0,0.5,,,,,,,,,0,11,11,7,1,,,,,,,,,,,,,,,,,,,,,,,,,,,,,,,,,,,,,,,,,,,,,,,,,,,,,,,,,,,,,,
,,,,,,,,Harbor,3,Female,Hispanic/Latino,N/A,2024-12-20_19h06.22.130,dissOSARI,2023.2.3,Win32,59.52380952,,,,,,,,,,,,,,,,,,,,,,,,,,,,,,,,643.9308,644.9308,644.9308,645.9311,,,,,,0,0.5,,,,,,,,,0,12,12,27,1,,,,,,,,,,,,,,,,,,,,,,,,,,,,,,,,,,,,,,,,,,,,,,,,,,,,,,,,,,,,,,
,,,,,,,,Harbor,3,Female,Hispanic/Latino,N/A,2024-12-20_19h06.22.130,dissOSARI,2023.2.3,Win32,59.52380952,,,,,,,,,,,,,,,,,,,,,,,,,,,,,,,,645.9317,647.015,647.015,648.0161,,,,,,0,0.5,,,,,,,,,0,13,13,20,1,,,,,,,,,,,,,,,,,,,,,,,,,,,,,,,,,,,,,,,,,,,,,,,,,,,,,,,,,,,,,,
,,,,,,,,Harbor,3,Female,Hispanic/Latino,N/A,2024-12-20_19h06.22.130,dissOSARI,2023.2.3,Win32,59.52380952,,,,,,,,,,,,,,,,,,,,,,,,,,,,,,,,648.0168,664.7306,664.7306,665.7296,,,,,,0,0.5,,,,,,,,,0,14,14,25,1,,,,,,,,,,,,,,,,,,,,,,,,,,,,,,,,,,,,,,,,,,,,,,,,,,,,,,,,,,,,,,
,,,,,,,,Harbor,3,Female,Hispanic/Latino,N/A,2024-12-20_19h06.22.130,dissOSARI,2023.2.3,Win32,59.52380952,,,,,,,,,,,,,,,,,,,,,,,,,,,,,,,,665.7298,666.8813,666.8814,667.8832,,,,,,0,0.5,,,,,,,,,0,15,15,3,1,,,,,,,,,,,,,,,,,,,,,,,,,,,,,,,,,,,,,,,,,,,,,,,,,,,,,,,,,,,,,,
,,,,,,,,Harbor,3,Female,Hispanic/Latino,N/A,2024-12-20_19h06.22.130,dissOSARI,2023.2.3,Win32,59.52380952,,,,,,,,,,,,,,,,,,,,,,,,,,,,,,,,667.8838,668.9657,668.9657,669.968,,,,,,0,0.5,,,,,,,,,0,16,16,28,1,,,,,,,,,,,,,,,,,,,,,,,,,,,,,,,,,,,,,,,,,,,,,,,,,,,,,,,,,,,,,,
,,,,,,,,Harbor,3,Female,Hispanic/Latino,N/A,2024-12-20_19h06.22.130,dissOSARI,2023.2.3,Win32,59.52380952,,,,,,,,,,,,,,,,,,,,,,,,,,,,,,,,669.969,670.9681,670.9682,671.9693,,,,,,0,0.5,,,,,,,,,0,17,17,14,1,,,,,,,,,,,,,,,,,,,,,,,,,,,,,,,,,,,,,,,,,,,,,,,,,,,,,,,,,,,,,,
,,,,,,,,Harbor,3,Female,Hispanic/Latino,N/A,2024-12-20_19h06.22.130,dissOSARI,2023.2.3,Win32,59.52380952,,,,,,,,,,,,,,,,,,,,,,,,,,,,,,,,671.97,673.0194,673.0195,674.0213,,,,,,0,0.5,,,,,,,,,0,18,18,8,1,,,,,,,,,,,,,,,,,,,,,,,,,,,,,,,,,,,,,,,,,,,,,,,,,,,,,,,,,,,,,,
,,,,,,,,Harbor,3,Female,Hispanic/Latino,N/A,2024-12-20_19h06.22.130,dissOSARI,2023.2.3,Win32,59.52380952,,,,,,,,,,,,,,,,,,,,,,,,,,,,,,,,674.0219,675.1545,675.1545,676.1556,,,,,,0,0.5,,,,,,,,,0,19,19,19,1,,,,,,,,,,,,,,,,,,,,,,,,,,,,,,,,,,,,,,,,,,,,,,,,,,,,,,,,,,,,,,
,,,,,,,,Harbor,3,Female,Hispanic/Latino,N/A,2024-12-20_19h06.22.130,dissOSARI,2023.2.3,Win32,59.52380952,,,,,,,,,,,,,,,,,,,,,,,,,,,,,,,,676.1561,677.2229,677.223,678.2242,,,,,,0,0.5,,,,,,,,,0,20,20,35,1,,,,,,,,,,,,,,,,,,,,,,,,,,,,,,,,,,,,,,,,,,,,,,,,,,,,,,,,,,,,,,
,,,,,,,,Harbor,3,Female,Hispanic/Latino,N/A,2024-12-20_19h06.22.130,dissOSARI,2023.2.3,Win32,59.52380952,,,,,,,,,,,,,,,,,,,,,,,,,,,,,,,,678.2247,679.2259,679.2259,680.2263,,,,,,0,0.5,,,,,,,,,0,21,21,9,1,,,,,,,,,,,,,,,,,,,,,,,,,,,,,,,,,,,,,,,,,,,,,,,,,,,,,,,,,,,,,,
,,,,,,,,Harbor,3,Female,Hispanic/Latino,N/A,2024-12-20_19h06.22.130,dissOSARI,2023.2.3,Win32,59.52380952,,,,,,,,,,,,,,,,,,,,,,,,,,,,,,,,680.2269,681.3092,681.3092,682.3109,,,,,,0,0.5,,,,,,,,,0,22,22,32,1,,,,,,,,,,,,,,,,,,,,,,,,,,,,,,,,,,,,,,,,,,,,,,,,,,,,,,,,,,,,,,
,,,,,,,,Harbor,3,Female,Hispanic/Latino,N/A,2024-12-20_19h06.22.130,dissOSARI,2023.2.3,Win32,59.52380952,,,,,,,,,,,,,,,,,,,,,,,,,,,,,,,,682.3116,683.3117,683.3118,684.3126,,,,,,0,0.5,,,,,,,,,0,23,23,24,1,,,,,,,,,,,,,,,,,,,,,,,,,,,,,,,,,,,,,,,,,,,,,,,,,,,,,,,,,,,,,,
,,,,,,,,Harbor,3,Female,Hispanic/Latino,N/A,2024-12-20_19h06.22.130,dissOSARI,2023.2.3,Win32,59.52380952,,,,,,,,,,,,,,,,,,,,,,,,,,,,,,,,684.3131,685.3967,685.3967,686.398,,,,,,0,0.5,,,,,,,,,0,24,24,44,1,,,,,,,,,,,,,,,,,,,,,,,,,,,,,,,,,,,,,,,,,,,,,,,,,,,,,,,,,,,,,,
,,,,,,,,Harbor,3,Female,Hispanic/Latino,N/A,2024-12-20_19h06.22.130,dissOSARI,2023.2.3,Win32,59.52380952,,,,,,,,,,,,,,,,,,,,,,,,,,,,,,,,686.3987,687.6654,687.6654,688.6664,,,,,,0,0.5,,,,,,,,,0,25,25,42,1,,,,,,,,,,,,,,,,,,,,,,,,,,,,,,,,,,,,,,,,,,,,,,,,,,,,,,,,,,,,,,
,,,,,,,,Harbor,3,Female,Hispanic/Latino,N/A,2024-12-20_19h06.22.130,dissOSARI,2023.2.3,Win32,59.52380952,,,,,,,,,,,,,,,,,,,,,,,,,,,,,,,,688.6672,689.8339,689.8339,690.8354,,,,,,0,0.5,,,,,,,,,0,26,26,10,1,,,,,,,,,,,,,,,,,,,,,,,,,,,,,,,,,,,,,,,,,,,,,,,,,,,,,,,,,,,,,,
,,,,,,,,Harbor,3,Female,Hispanic/Latino,N/A,2024-12-20_19h06.22.130,dissOSARI,2023.2.3,Win32,59.52380952,,,,,,,,,,,,,,,,,,,,,,,,,,,,,,,,690.836,691.97,691.97,692.9704,,,,,,0,0.5,,,,,,,,,0,27,27,12,1,,,,,,,,,,,,,,,,,,,,,,,,,,,,,,,,,,,,,,,,,,,,,,,,,,,,,,,,,,,,,,
,,,,,,,,Harbor,3,Female,Hispanic/Latino,N/A,2024-12-20_19h06.22.130,dissOSARI,2023.2.3,Win32,59.52380952,,,,,,,,,,,,,,,,,,,,,,,,,,,,,,,,692.971,694.1037,694.1037,695.1055,,,,,,0,0.5,,,,,,,,,0,28,28,45,1,,,,,,,,,,,,,,,,,,,,,,,,,,,,,,,,,,,,,,,,,,,,,,,,,,,,,,,,,,,,,,
,,,,,,,,Harbor,3,Female,Hispanic/Latino,N/A,2024-12-20_19h06.22.130,dissOSARI,2023.2.3,Win32,59.52380952,,,,,,,,,,,,,,,,,,,,,,,,,,,,,,,,695.1061,696.1888,696.1889,697.19,,,,,,0,0.5,,,,,,,,,0,29,29,22,1,,,,,,,,,,,,,,,,,,,,,,,,,,,,,,,,,,,,,,,,,,,,,,,,,,,,,,,,,,,,,,
,,,,,,,,Harbor,3,Female,Hispanic/Latino,N/A,2024-12-20_19h06.22.130,dissOSARI,2023.2.3,Win32,59.52380952,,,,,,,,,,,,,,,,,,,,,,,,,,,,,,,,697.1907,698.3565,698.3566,699.3588,,,,,,0,0.5,,,,,,,,,0,30,30,16,1,,,,,,,,,,,,,,,,,,,,,,,,,,,,,,,,,,,,,,,,,,,,,,,,,,,,,,,,,,,,,,
,,,,,,,,Harbor,3,Female,Hispanic/Latino,N/A,2024-12-20_19h06.22.130,dissOSARI,2023.2.3,Win32,59.52380952,,,,,,,,,,,,,,,,,,,,,,,,,,,,,,,,699.3594,700.5253,700.5254,701.5266,,,,,,0,0.5,,,,,,,,,0,31,31,6,1,,,,,,,,,,,,,,,,,,,,,,,,,,,,,,,,,,,,,,,,,,,,,,,,,,,,,,,,,,,,,,
,,,,,,,,Harbor,3,Female,Hispanic/Latino,N/A,2024-12-20_19h06.22.130,dissOSARI,2023.2.3,Win32,59.52380952,,,,,,,,,,,,,,,,,,,,,,,,,,,,,,,,701.5273,702.6778,702.6778,703.6792,,,,,,0,0.5,,,,,,,,,0,32,32,36,1,,,,,,,,,,,,,,,,,,,,,,,,,,,,,,,,,,,,,,,,,,,,,,,,,,,,,,,,,,,,,,
,,,,,,,,Harbor,3,Female,Hispanic/Latino,N/A,2024-12-20_19h06.22.130,dissOSARI,2023.2.3,Win32,59.52380952,,,,,,,,,,,,,,,,,,,,,,,,,,,,,,,,703.6798,704.9121,704.9121,705.9139,,,,,,0,0.5,,,,,,,,,0,33,33,34,1,,,,,,,,,,,,,,,,,,,,,,,,,,,,,,,,,,,,,,,,,,,,,,,,,,,,,,,,,,,,,,
,,,,,,,,Harbor,3,Female,Hispanic/Latino,N/A,2024-12-20_19h06.22.130,dissOSARI,2023.2.3,Win32,59.52380952,,,,,,,,,,,,,,,,,,,,,,,,,,,,,,,,705.9147,707.0145,707.0146,708.0155,,,,,,0,0.5,,,,,,,,,0,34,34,13,1,,,,,,,,,,,,,,,,,,,,,,,,,,,,,,,,,,,,,,,,,,,,,,,,,,,,,,,,,,,,,,
,,,,,,,,Harbor,3,Female,Hispanic/Latino,N/A,2024-12-20_19h06.22.130,dissOSARI,2023.2.3,Win32,59.52380952,,,,,,,,,,,,,,,,,,,,,,,,,,,,,,,,708.0163,709.366,709.366,710.3676,,,,,,0,0.5,,,,,,,,,0,35,35,26,1,,,,,,,,,,,,,,,,,,,,,,,,,,,,,,,,,,,,,,,,,,,,,,,,,,,,,,,,,,,,,,
,,,,,,,,Harbor,3,Female,Hispanic/Latino,N/A,2024-12-20_19h06.22.130,dissOSARI,2023.2.3,Win32,59.52380952,,,,,,,,,,,,,,,,,,,,,,,,,,,,,,,,710.3683,711.5016,711.5016,712.503,,,,,,0,0.5,,,,,,,,,0,36,36,11,1,,,,,,,,,,,,,,,,,,,,,,,,,,,,,,,,,,,,,,,,,,,,,,,,,,,,,,,,,,,,,,
,,,,,,,,Harbor,3,Female,Hispanic/Latino,N/A,2024-12-20_19h06.22.130,dissOSARI,2023.2.3,Win32,59.52380952,,,,,,,,,,,,,,,,,,,,,,,,,,,,,,,,712.5036,713.5032,713.5032,714.5036,,,,,,0,0.5,,,,,,,,,0,37,37,46,1,,,,,,,,,,,,,,,,,,,,,,,,,,,,,,,,,,,,,,,,,,,,,,,,,,,,,,,,,,,,,,
,,,,,,,,Harbor,3,Female,Hispanic/Latino,N/A,2024-12-20_19h06.22.130,dissOSARI,2023.2.3,Win32,59.52380952,,,,,,,,,,,,,,,,,,,,,,,,,,,,,,,,714.5039,715.6716,715.6716,716.6729,,,,,,0,0.5,,,,,,,,,0,38,38,0,1,,,,,,,,,,,,,,,,,,,,,,,,,,,,,,,,,,,,,,,,,,,,,,,,,,,,,,,,,,,,,,
,,,,,,,,Harbor,3,Female,Hispanic/Latino,N/A,2024-12-20_19h06.22.130,dissOSARI,2023.2.3,Win32,59.52380952,,,,,,,,,,,,,,,,,,,,,,,,,,,,,,,,716.6733,718.0405,718.0406,719.0302,,,,,,0,0.5,,,,,,,,,0,39,39,31,1,,,,,,,,,,,,,,,,,,,,,,,,,,,,,,,,,,,,,,,,,,,,,,,,,,,,,,,,,,,,,,
,,,,,,,,Harbor,3,Female,Hispanic/Latino,N/A,2024-12-20_19h06.22.130,dissOSARI,2023.2.3,Win32,59.52380952,,,,,,,,,,,,,,,,,,,,,,,,,,,,,,,,719.0303,720.1476,720.1476,721.1483,,,,,,0,0.5,,,,,,,,,0,40,40,30,1,,,,,,,,,,,,,,,,,,,,,,,,,,,,,,,,,,,,,,,,,,,,,,,,,,,,,,,,,,,,,,
,,,,,,,,Harbor,3,Female,Hispanic/Latino,N/A,2024-12-20_19h06.22.130,dissOSARI,2023.2.3,Win32,59.52380952,,,,,,,,,,,,,,,,,,,,,,,,,,,,,,,,721.1486,722.4148,722.4148,723.4163,,,,,,0,0.5,,,,,,,,,0,41,41,38,1,,,,,,,,,,,,,,,,,,,,,,,,,,,,,,,,,,,,,,,,,,,,,,,,,,,,,,,,,,,,,,
,,,,,,,,Harbor,3,Female,Hispanic/Latino,N/A,2024-12-20_19h06.22.130,dissOSARI,2023.2.3,Win32,59.52380952,,,,,,,,,,,,,,,,,,,,,,,,,,,,,,,,723.4164,724.6006,724.6006,725.5966,,,,,,0,0.5,,,,,,,,,0,42,42,4,1,,,,,,,,,,,,,,,,,,,,,,,,,,,,,,,,,,,,,,,,,,,,,,,,,,,,,,,,,,,,,,
,,,,,,,,Harbor,3,Female,Hispanic/Latino,N/A,2024-12-20_19h06.22.130,dissOSARI,2023.2.3,Win32,59.52380952,,,,,,,,,,,,,,,,,,,,,,,,,,,,,,,,725.5968,726.7033,726.7034,727.7033,,,,,,0,0.5,,,,,,,,,0,43,43,5,1,,,,,,,,,,,,,,,,,,,,,,,,,,,,,,,,,,,,,,,,,,,,,,,,,,,,,,,,,,,,,,
,,,,,,,,Harbor,3,Female,Hispanic/Latino,N/A,2024-12-20_19h06.22.130,dissOSARI,2023.2.3,Win32,59.52380952,,,,,,,,,,,,,,,,,,,,,,,,,,,,,,,,727.7035,728.7535,728.7535,729.7543,,,,,,0,0.5,,,,,,,,,0,44,44,18,1,,,,,,,,,,,,,,,,,,,,,,,,,,,,,,,,,,,,,,,,,,,,,,,,,,,,,,,,,,,,,,
,,,,,,,,Harbor,3,Female,Hispanic/Latino,N/A,2024-12-20_19h06.22.130,dissOSARI,2023.2.3,Win32,59.52380952,,,,,,,,,,,,,,,,,,,,,,,,,,,,,,,,729.7548,730.8895,730.8895,731.8838,,,,,,0,0.5,,,,,,,,,0,45,45,40,1,,,,,,,,,,,,,,,,,,,,,,,,,,,,,,,,,,,,,,,,,,,,,,,,,,,,,,,,,,,,,,
,,,,,,,,Harbor,3,Female,Hispanic/Latino,N/A,2024-12-20_19h06.22.130,dissOSARI,2023.2.3,Win32,59.52380952,,,,,,,,,,,,,,,,,,,,,,,,,,,,,,,,731.884,733.0575,733.0576,734.058,,,,,,0,0.5,,,,,,,,,0,46,46,48,1,,,,,,,,,,,,,,,,,,,,,,,,,,,,,,,,,,,,,,,,,,,,,,,,,,,,,,,,,,,,,,
,,,,,,,,Harbor,3,Female,Hispanic/Latino,N/A,2024-12-20_19h06.22.130,dissOSARI,2023.2.3,Win32,59.52380952,,,,,,,,,,,,,,,,,,,,,,,,,,,,,,,,734.0582,735.1424,735.1424,736.1429,,,,,,0,0.5,,,,,,,,,0,47,47,2,1,,,,,,,,,,,,,,,,,,,,,,,,,,,,,,,,,,,,,,,,,,,,,,,,,,,,,,,,,,,,,,
,,,,,,,,Harbor,3,Female,Hispanic/Latino,N/A,2024-12-20_19h06.22.130,dissOSARI,2023.2.3,Win32,59.52380952,,,,,,,,,,,,,,,,,,,,,,,,,,,,,,,,736.1431,737.1782,737.1782,738.1794,,,,,,0,0.5,,,,,,,,,0,48,48,47,1,,,,,,,,,,,,,,,,,,,,,,,,,,,,,,,,,,,,,,,,,,,,,,,,,,,,,,,,,,,,,,
,,,,,,,,Harbor,3,Female,Hispanic/Latino,N/A,2024-12-20_19h06.22.130,dissOSARI,2023.2.3,Win32,59.52380952,,,,,,,,,,,,,,,,,,,,,,,,,,,,,,,,738.1796,739.196,739.196,740.1921,,,,,,0,0.5,,,,,,,,,0,49,49,49,1,,,,,,,,,,,,,,,,,,,,,,,,,,,,,,,,,,,,,,,,,,,,,,,,,,,,,,,,,,,,,,
,,,,,,,,Harbor,3,Female,Hispanic/Latino,N/A,2024-12-20_19h06.22.130,dissOSARI,2023.2.3,Win32,59.52380952,,,,,,,,,,,,,,,,,,,,,,,,,,,,,,,,,,,,,,,,,,,,,,,,,,,,,,,,740.1925,741.215,0.265662173,-0.186756542,1,0,0,0.2717,,,,,,,,,,,,,,,,,,,,,,,,,,,,,,,,,,,,,,,,,,,,,,,,,,,,,,
,,,,,,,,Harbor,3,Female,Hispanic/Latino,N/A,2024-12-20_19h06.22.130,dissOSARI,2023.2.3,Win32,59.52380952,,,,,,,,,,,,,,,,,,,,,,,,,,,,,,,,,,,,,,,,,,,,,,,,,,,,,,,,,,,,,,,,741.2151,741.8326,0.332275971,-0.239888977,1,0,0,0.367,,,,,,,,,,,,,,,,,,,,,,,,,,,,,,,,,,,,,,,,,,,,,,
,,,,,,,,Harbor,3,Female,Hispanic/Latino,N/A,2024-12-20_19h06.22.130,dissOSARI,2023.2.3,Win32,59.52380952,,,,,,,,,,,,,,,,,,,,,,,,,,,,,,,,,,,,,,,,,,,,,,,,,,,,,,,,,,,,,,,,,,,,,,,,741.8327,742.3495,0.335448057,-0.258128469,1,0,0,0.2662,,,,,,,,,,,,,,,,,,,,,,,,,,,,,,,,,,,,,,
,,,,,,,,Harbor,3,Female,Hispanic/Latino,N/A,2024-12-20_19h06.22.130,dissOSARI,2023.2.3,Win32,59.52380952,,,,,,,,,,,,,,,,,,,,,,,,,,,,,,,,,,,,,,,,,,,,,,,,,,,,,,,,,,,,,,,,,,,,,,,,,,,,,,,,742.3495,743.1455,0.335448057,-0.258128469,1,0,0,0.5345,,,,,,,,,,,,,,,,,,,,,,,,,,,,,,
,,,,,,,,Harbor,3,Female,Hispanic/Latino,N/A,2024-12-20_19h06.22.130,dissOSARI,2023.2.3,Win32,59.52380952,,,,,,,,,,,,,,,,,,,,,,,,,,,,,,,,743.1488,745.5516,745.5517,746.5515,,,,,,0,0.5,,,,,,,,,,,,,,,,,,,,,,,,,,,,,,,,,,,,,,,,,,,,,,0,0,0,7,1,,,,,,,,,,,,,,,,,,,,,,,,,
,,,,,,,,Harbor,3,Female,Hispanic/Latino,N/A,2024-12-20_19h06.22.130,dissOSARI,2023.2.3,Win32,59.52380952,,,,,,,,,,,,,,,,,,,,,,,,,,,,,,,,746.5517,747.8204,747.8204,748.8206,,,,,,0,0.5,,,,,,,,,,,,,,,,,,,,,,,,,,,,,,,,,,,,,,,,,,,,,,0,1,1,5,1,,,,,,,,,,,,,,,,,,,,,,,,,
,,,,,,,,Harbor,3,Female,Hispanic/Latino,N/A,2024-12-20_19h06.22.130,dissOSARI,2023.2.3,Win32,59.52380952,,,,,,,,,,,,,,,,,,,,,,,,,,,,,,,,748.8207,749.9716,749.9716,750.9726,,,,,,1,0.5,,,,,,,,,,,,,,,,,,,,,,,,,,,,,,,,,,,,,,,,,,,,,,0,2,2,0,1,,,,,,,,,,,,,,,,,,,,,,,,,
,,,,,,,,Harbor,3,Female,Hispanic/Latino,N/A,2024-12-20_19h06.22.130,dissOSARI,2023.2.3,Win32,59.52380952,,,,,,,,,,,,,,,,,,,,,,,,,,,,,,,,750.973,752.5405,752.5405,753.5358,,,,,,1,0.5,,,,,,,,,,,,,,,,,,,,,,,,,,,,,,,,,,,,,,,,,,,,,,0,3,3,2,1,,,,,,,,,,,,,,,,,,,,,,,,,
,,,,,,,,Harbor,3,Female,Hispanic/Latino,N/A,2024-12-20_19h06.22.130,dissOSARI,2023.2.3,Win32,59.52380952,,,,,,,,,,,,,,,,,,,,,,,,,,,,,,,,753.5365,754.9085,754.9085,755.9098,,,,,,1,0.5,,,,,,,,,,,,,,,,,,,,,,,,,,,,,,,,,,,,,,,,,,,,,,0,4,4,1,1,,,,,,,,,,,,,,,,,,,,,,,,,
,,,,,,,,Harbor,3,Female,Hispanic/Latino,N/A,2024-12-20_19h06.22.130,dissOSARI,2023.2.3,Win32,59.52380952,,,,,,,,,,,,,,,,,,,,,,,,,,,,,,,,755.9102,757.1288,757.1288,758.1292,,,,,,0,0.5,,,,,,,,,,,,,,,,,,,,,,,,,,,,,,,,,,,,,,,,,,,,,,0,5,5,8,1,,,,,,,,,,,,,,,,,,,,,,,,,
,,,,,,,,Harbor,3,Female,Hispanic/Latino,N/A,2024-12-20_19h06.22.130,dissOSARI,2023.2.3,Win32,59.52380952,,,,,,,,,,,,,,,,,,,,,,,,,,,,,,,,758.1295,759.3463,759.3463,760.3464,,,,,,0,0.5,,,,,,,,,,,,,,,,,,,,,,,,,,,,,,,,,,,,,,,,,,,,,,0,6,6,6,1,,,,,,,,,,,,,,,,,,,,,,,,,
,,,,,,,,Harbor,3,Female,Hispanic/Latino,N/A,2024-12-20_19h06.22.130,dissOSARI,2023.2.3,Win32,59.52380952,,,,,,,,,,,,,,,,,,,,,,,,,,,,,,,,760.3466,761.4311,761.4311,762.4262,,,,,,1,0.5,,,,,,,,,,,,,,,,,,,,,,,,,,,,,,,,,,,,,,,,,,,,,,0,7,7,4,1,,,,,,,,,,,,,,,,,,,,,,,,,
,,,,,,,,Harbor,3,Female,Hispanic/Latino,N/A,2024-12-20_19h06.22.130,dissOSARI,2023.2.3,Win32,59.52380952,,,,,,,,,,,,,,,,,,,,,,,,,,,,,,,,762.4263,764.1168,764.1168,765.1173,,,,,,0,0.5,,,,,,,,,,,,,,,,,,,,,,,,,,,,,,,,,,,,,,,,,,,,,,0,8,8,9,1,,,,,,,,,,,,,,,,,,,,,,,,,
,,,,,,,,Harbor,3,Female,Hispanic/Latino,N/A,2024-12-20_19h06.22.130,dissOSARI,2023.2.3,Win32,59.52380952,,,,,,,,,,,,,,,,,,,,,,,,,,,,,,,,765.1175,766.6852,766.6852,767.6802,,,,,,1,0.5,,,,,,,,,,,,,,,,,,,,,,,,,,,,,,,,,,,,,,,,,,,,,,0,9,9,3,1,,,,,,,,,,,,,,,,,,,,,,,,,
,,,,,,,,Harbor,3,Female,Hispanic/Latino,N/A,2024-12-20_19h06.22.130,dissOSARI,2023.2.3,Win32,59.52380952,,,,,,,,,,,,,,,,,,,,,,,,,,,,,,,,774.1705,775.7431,775.7431,776.7381,,,,,,0,0.5,,,,,,,,,,,,,,,,,,,,,,,,,,,,,,,,,,,,,,,,,,,,,,,,,,,767.6811,774.1697,0,0,0,22,1,,,,,,,,,,,,,,,,,,
,,,,,,,,Harbor,3,Female,Hispanic/Latino,N/A,2024-12-20_19h06.22.130,dissOSARI,2023.2.3,Win32,59.52380952,,,,,,,,,,,,,,,,,,,,,,,,,,,,,,,,776.7386,777.8446,777.8446,778.8448,,,,,,1,0.5,,,,,,,,,,,,,,,,,,,,,,,,,,,,,,,,,,,,,,,,,,,,,,,,,,,,,0,1,1,79,1,,,,,,,,,,,,,,,,,,
,,,,,,,,Harbor,3,Female,Hispanic/Latino,N/A,2024-12-20_19h06.22.130,dissOSARI,2023.2.3,Win32,59.52380952,,,,,,,,,,,,,,,,,,,,,,,,,,,,,,,,778.8449,780.5805,780.5805,781.5751,,,,,,1,0.5,,,,,,,,,,,,,,,,,,,,,,,,,,,,,,,,,,,,,,,,,,,,,,,,,,,,,0,2,2,61,1,,,,,,,,,,,,,,,,,,
,,,,,,,,Harbor,3,Female,Hispanic/Latino,N/A,2024-12-20_19h06.22.130,dissOSARI,2023.2.3,Win32,59.52380952,,,,,,,,,,,,,,,,,,,,,,,,,,,,,,,,781.5753,782.982,782.9821,783.9782,,,,,,1,0.5,,,,,,,,,,,,,,,,,,,,,,,,,,,,,,,,,,,,,,,,,,,,,,,,,,,,,0,3,3,72,1,,,,,,,,,,,,,,,,,,
,,,,,,,,Harbor,3,Female,Hispanic/Latino,N/A,2024-12-20_19h06.22.130,dissOSARI,2023.2.3,Win32,59.52380952,,,,,,,,,,,,,,,,,,,,,,,,,,,,,,,,783.9785,785.1855,785.1855,786.1806,,,,,,0,0.5,,,,,,,,,,,,,,,,,,,,,,,,,,,,,,,,,,,,,,,,,,,,,,,,,,,,,0,4,4,37,1,,,,,,,,,,,,,,,,,,
,,,,,,,,Harbor,3,Female,Hispanic/Latino,N/A,2024-12-20_19h06.22.130,dissOSARI,2023.2.3,Win32,59.52380952,,,,,,,,,,,,,,,,,,,,,,,,,,,,,,,,786.181,787.2696,787.2696,788.2651,,,,,,0,0.5,,,,,,,,,,,,,,,,,,,,,,,,,,,,,,,,,,,,,,,,,,,,,,,,,,,,,0,5,5,14,1,,,,,,,,,,,,,,,,,,
,,,,,,,,Harbor,3,Female,Hispanic/Latino,N/A,2024-12-20_19h06.22.130,dissOSARI,2023.2.3,Win32,59.52380952,,,,,,,,,,,,,,,,,,,,,,,,,,,,,,,,788.2654,789.4727,789.4727,790.4673,,,,,,1,0.5,,,,,,,,,,,,,,,,,,,,,,,,,,,,,,,,,,,,,,,,,,,,,,,,,,,,,0,6,6,60,1,,,,,,,,,,,,,,,,,,
,,,,,,,,Harbor,3,Female,Hispanic/Latino,N/A,2024-12-20_19h06.22.130,dissOSARI,2023.2.3,Win32,59.52380952,,,,,,,,,,,,,,,,,,,,,,,,,,,,,,,,790.4675,792.5577,792.5577,793.5531,,,,,,1,0.5,,,,,,,,,,,,,,,,,,,,,,,,,,,,,,,,,,,,,,,,,,,,,,,,,,,,,0,7,7,63,1,,,,,,,,,,,,,,,,,,
,,,,,,,,Harbor,3,Female,Hispanic/Latino,N/A,2024-12-20_19h06.22.130,dissOSARI,2023.2.3,Win32,59.52380952,,,,,,,,,,,,,,,,,,,,,,,,,,,,,,,,793.5534,794.709,794.709,795.7045,,,,,,0,0.5,,,,,,,,,,,,,,,,,,,,,,,,,,,,,,,,,,,,,,,,,,,,,,,,,,,,,0,8,8,44,1,,,,,,,,,,,,,,,,,,
,,,,,,,,Harbor,3,Female,Hispanic/Latino,N/A,2024-12-20_19h06.22.130,dissOSARI,2023.2.3,Win32,59.52380952,,,,,,,,,,,,,,,,,,,,,,,,,,,,,,,,795.7048,829.4839,829.484,830.4833,,,,,,1,0.5,,,,,,,,,,,,,,,,,,,,,,,,,,,,,,,,,,,,,,,,,,,,,,,,,,,,,0,9,9,65,1,,,,,,,,,,,,,,,,,,
,,,,,,,,Harbor,3,Female,Hispanic/Latino,N/A,2024-12-20_19h06.22.130,dissOSARI,2023.2.3,Win32,59.52380952,,,,,,,,,,,,,,,,,,,,,,,,,,,,,,,,830.4843,832.001,832.0011,833.0019,,,,,,0,0.5,,,,,,,,,,,,,,,,,,,,,,,,,,,,,,,,,,,,,,,,,,,,,,,,,,,,,0,10,10,43,1,,,,,,,,,,,,,,,,,,
,,,,,,,,Harbor,3,Female,Hispanic/Latino,N/A,2024-12-20_19h06.22.130,dissOSARI,2023.2.3,Win32,59.52380952,,,,,,,,,,,,,,,,,,,,,,,,,,,,,,,,833.0028,834.553,834.5531,835.5542,,,,,,0,0.5,,,,,,,,,,,,,,,,,,,,,,,,,,,,,,,,,,,,,,,,,,,,,,,,,,,,,0,11,11,51,1,,,,,,,,,,,,,,,,,,
,,,,,,,,Harbor,3,Female,Hispanic/Latino,N/A,2024-12-20_19h06.22.130,dissOSARI,2023.2.3,Win32,59.52380952,,,,,,,,,,,,,,,,,,,,,,,,,,,,,,,,835.5549,836.889,836.889,837.8892,,,,,,1,0.5,,,,,,,,,,,,,,,,,,,,,,,,,,,,,,,,,,,,,,,,,,,,,,,,,,,,,0,12,12,67,1,,,,,,,,,,,,,,,,,,
,,,,,,,,Harbor,3,Female,Hispanic/Latino,N/A,2024-12-20_19h06.22.130,dissOSARI,2023.2.3,Win32,59.52380952,,,,,,,,,,,,,,,,,,,,,,,,,,,,,,,,837.8895,839.3071,839.3071,840.3088,,,,,,0,0.5,,,,,,,,,,,,,,,,,,,,,,,,,,,,,,,,,,,,,,,,,,,,,,,,,,,,,0,13,13,23,1,,,,,,,,,,,,,,,,,,
,,,,,,,,Harbor,3,Female,Hispanic/Latino,N/A,2024-12-20_19h06.22.130,dissOSARI,2023.2.3,Win32,59.52380952,,,,,,,,,,,,,,,,,,,,,,,,,,,,,,,,840.3095,841.3922,841.3923,842.3933,,,,,,0,0.5,,,,,,,,,,,,,,,,,,,,,,,,,,,,,,,,,,,,,,,,,,,,,,,,,,,,,0,14,14,57,1,,,,,,,,,,,,,,,,,,
,,,,,,,,Harbor,3,Female,Hispanic/Latino,N/A,2024-12-20_19h06.22.130,dissOSARI,2023.2.3,Win32,59.52380952,,,,,,,,,,,,,,,,,,,,,,,,,,,,,,,,842.3939,843.4435,843.4436,844.4448,,,,,,0,0.5,,,,,,,,,,,,,,,,,,,,,,,,,,,,,,,,,,,,,,,,,,,,,,,,,,,,,0,15,15,45,1,,,,,,,,,,,,,,,,,,
,,,,,,,,Harbor,3,Female,Hispanic/Latino,N/A,2024-12-20_19h06.22.130,dissOSARI,2023.2.3,Win32,59.52380952,,,,,,,,,,,,,,,,,,,,,,,,,,,,,,,,844.4455,845.4786,845.4786,846.4804,,,,,,0,0.5,,,,,,,,,,,,,,,,,,,,,,,,,,,,,,,,,,,,,,,,,,,,,,,,,,,,,0,16,16,13,1,,,,,,,,,,,,,,,,,,
,,,,,,,,Harbor,3,Female,Hispanic/Latino,N/A,2024-12-20_19h06.22.130,dissOSARI,2023.2.3,Win32,59.52380952,,,,,,,,,,,,,,,,,,,,,,,,,,,,,,,,846.4811,847.7982,847.7982,848.7989,,,,,,1,0.5,,,,,,,,,,,,,,,,,,,,,,,,,,,,,,,,,,,,,,,,,,,,,,,,,,,,,0,17,17,64,1,,,,,,,,,,,,,,,,,,
,,,,,,,,Harbor,3,Female,Hispanic/Latino,N/A,2024-12-20_19h06.22.130,dissOSARI,2023.2.3,Win32,59.52380952,,,,,,,,,,,,,,,,,,,,,,,,,,,,,,,,848.7996,850.0159,850.0159,851.0169,,,,,,0,0.5,,,,,,,,,,,,,,,,,,,,,,,,,,,,,,,,,,,,,,,,,,,,,,,,,,,,,0,18,18,56,1,,,,,,,,,,,,,,,,,,
,,,,,,,,Harbor,3,Female,Hispanic/Latino,N/A,2024-12-20_19h06.22.130,dissOSARI,2023.2.3,Win32,59.52380952,,,,,,,,,,,,,,,,,,,,,,,,,,,,,,,,851.0176,869.8815,869.8816,870.8838,,,,,,0,0.5,,,,,,,,,,,,,,,,,,,,,,,,,,,,,,,,,,,,,,,,,,,,,,,,,,,,,0,19,19,0,1,,,,,,,,,,,,,,,,,,
,,,,,,,,Harbor,3,Female,Hispanic/Latino,N/A,2024-12-20_19h06.22.130,dissOSARI,2023.2.3,Win32,59.52380952,,,,,,,,,,,,,,,,,,,,,,,,,,,,,,,,870.8846,871.7838,871.7838,872.7847,,,,,,0,0.5,,,,,,,,,,,,,,,,,,,,,,,,,,,,,,,,,,,,,,,,,,,,,,,,,,,,,0,20,20,52,1,,,,,,,,,,,,,,,,,,
,,,,,,,,Harbor,3,Female,Hispanic/Latino,N/A,2024-12-20_19h06.22.130,dissOSARI,2023.2.3,Win32,59.52380952,,,,,,,,,,,,,,,,,,,,,,,,,,,,,,,,872.7852,873.8023,873.8023,874.8035,,,,,,0,0.5,,,,,,,,,,,,,,,,,,,,,,,,,,,,,,,,,,,,,,,,,,,,,,,,,,,,,0,21,21,35,1,,,,,,,,,,,,,,,,,,
,,,,,,,,Harbor,3,Female,Hispanic/Latino,N/A,2024-12-20_19h06.22.130,dissOSARI,2023.2.3,Win32,59.52380952,,,,,,,,,,,,,,,,,,,,,,,,,,,,,,,,874.8041,875.8873,875.8873,876.8884,,,,,,0,0.5,,,,,,,,,,,,,,,,,,,,,,,,,,,,,,,,,,,,,,,,,,,,,,,,,,,,,0,22,22,41,1,,,,,,,,,,,,,,,,,,
,,,,,,,,Harbor,3,Female,Hispanic/Latino,N/A,2024-12-20_19h06.22.130,dissOSARI,2023.2.3,Win32,59.52380952,,,,,,,,,,,,,,,,,,,,,,,,,,,,,,,,876.889,941.0909,941.0909,942.0923,,,,,,0,0.5,,,,,,,,,,,,,,,,,,,,,,,,,,,,,,,,,,,,,,,,,,,,,,,,,,,,,0,23,23,1,1,,,,,,,,,,,,,,,,,,
,,,,,,,,Harbor,3,Female,Hispanic/Latino,N/A,2024-12-20_19h06.22.130,dissOSARI,2023.2.3,Win32,59.52380952,,,,,,,,,,,,,,,,,,,,,,,,,,,,,,,,942.0932,943.126,943.126,944.1274,,,,,,0,0.5,,,,,,,,,,,,,,,,,,,,,,,,,,,,,,,,,,,,,,,,,,,,,,,,,,,,,0,24,24,54,1,,,,,,,,,,,,,,,,,,
,,,,,,,,Harbor,3,Female,Hispanic/Latino,N/A,2024-12-20_19h06.22.130,dissOSARI,2023.2.3,Win32,59.52380952,,,,,,,,,,,,,,,,,,,,,,,,,,,,,,,,944.128,945.1612,945.1613,946.1627,,,,,,0,0.5,,,,,,,,,,,,,,,,,,,,,,,,,,,,,,,,,,,,,,,,,,,,,,,,,,,,,0,25,25,31,1,,,,,,,,,,,,,,,,,,
,,,,,,,,Harbor,3,Female,Hispanic/Latino,N/A,2024-12-20_19h06.22.130,dissOSARI,2023.2.3,Win32,59.52380952,,,,,,,,,,,,,,,,,,,,,,,,,,,,,,,,946.1635,947.0794,947.0795,948.0805,,,,,,0,0.5,,,,,,,,,,,,,,,,,,,,,,,,,,,,,,,,,,,,,,,,,,,,,,,,,,,,,0,26,26,53,1,,,,,,,,,,,,,,,,,,
,,,,,,,,Harbor,3,Female,Hispanic/Latino,N/A,2024-12-20_19h06.22.130,dissOSARI,2023.2.3,Win32,59.52380952,,,,,,,,,,,,,,,,,,,,,,,,,,,,,,,,948.0813,949.0977,949.0978,950.099,,,,,,0,0.5,,,,,,,,,,,,,,,,,,,,,,,,,,,,,,,,,,,,,,,,,,,,,,,,,,,,,0,27,27,17,1,,,,,,,,,,,,,,,,,,
,,,,,,,,Harbor,3,Female,Hispanic/Latino,N/A,2024-12-20_19h06.22.130,dissOSARI,2023.2.3,Win32,59.52380952,,,,,,,,,,,,,,,,,,,,,,,,,,,,,,,,950.0997,951.2502,951.2502,952.2507,,,,,,0,0.5,,,,,,,,,,,,,,,,,,,,,,,,,,,,,,,,,,,,,,,,,,,,,,,,,,,,,0,28,28,18,1,,,,,,,,,,,,,,,,,,
,,,,,,,,Harbor,3,Female,Hispanic/Latino,N/A,2024-12-20_19h06.22.130,dissOSARI,2023.2.3,Win32,59.52380952,,,,,,,,,,,,,,,,,,,,,,,,,,,,,,,,952.2514,953.3862,953.3863,954.3856,,,,,,1,0.5,,,,,,,,,,,,,,,,,,,,,,,,,,,,,,,,,,,,,,,,,,,,,,,,,,,,,0,29,29,69,1,,,,,,,,,,,,,,,,,,
,,,,,,,,Harbor,3,Female,Hispanic/Latino,N/A,2024-12-20_19h06.22.130,dissOSARI,2023.2.3,Win32,59.52380952,,,,,,,,,,,,,,,,,,,,,,,,,,,,,,,,954.3865,955.4527,955.4528,956.4541,,,,,,0,0.5,,,,,,,,,,,,,,,,,,,,,,,,,,,,,,,,,,,,,,,,,,,,,,,,,,,,,0,30,30,19,1,,,,,,,,,,,,,,,,,,
,,,,,,,,Harbor,3,Female,Hispanic/Latino,N/A,2024-12-20_19h06.22.130,dissOSARI,2023.2.3,Win32,59.52380952,,,,,,,,,,,,,,,,,,,,,,,,,,,,,,,,956.4547,957.8545,957.8545,958.8565,,,,,,0,0.5,,,,,,,,,,,,,,,,,,,,,,,,,,,,,,,,,,,,,,,,,,,,,,,,,,,,,0,31,31,42,1,,,,,,,,,,,,,,,,,,
,,,,,,,,Harbor,3,Female,Hispanic/Latino,N/A,2024-12-20_19h06.22.130,dissOSARI,2023.2.3,Win32,59.52380952,,,,,,,,,,,,,,,,,,,,,,,,,,,,,,,,958.8572,985.7123,985.7123,986.7125,,,,,,0,0.5,,,,,,,,,,,,,,,,,,,,,,,,,,,,,,,,,,,,,,,,,,,,,,,,,,,,,0,32,32,26,1,,,,,,,,,,,,,,,,,,
,,,,,,,,Harbor,3,Female,Hispanic/Latino,N/A,2024-12-20_19h06.22.130,dissOSARI,2023.2.3,Win32,59.52380952,,,,,,,,,,,,,,,,,,,,,,,,,,,,,,,,986.7131,988.1133,988.1133,989.115,,,,,,0,0.5,,,,,,,,,,,,,,,,,,,,,,,,,,,,,,,,,,,,,,,,,,,,,,,,,,,,,0,33,33,58,1,,,,,,,,,,,,,,,,,,
,,,,,,,,Harbor,3,Female,Hispanic/Latino,N/A,2024-12-20_19h06.22.130,dissOSARI,2023.2.3,Win32,59.52380952,,,,,,,,,,,,,,,,,,,,,,,,,,,,,,,,989.1156,990.2504,990.2504,991.2489,,,,,,1,0.5,,,,,,,,,,,,,,,,,,,,,,,,,,,,,,,,,,,,,,,,,,,,,,,,,,,,,0,34,34,71,1,,,,,,,,,,,,,,,,,,
,,,,,,,,Harbor,3,Female,Hispanic/Latino,N/A,2024-12-20_19h06.22.130,dissOSARI,2023.2.3,Win32,59.52380952,,,,,,,,,,,,,,,,,,,,,,,,,,,,,,,,991.2491,992.3327,992.3327,993.334,,,,,,0,0.5,,,,,,,,,,,,,,,,,,,,,,,,,,,,,,,,,,,,,,,,,,,,,,,,,,,,,0,35,35,59,1,,,,,,,,,,,,,,,,,,
,,,,,,,,Harbor,3,Female,Hispanic/Latino,N/A,2024-12-20_19h06.22.130,dissOSARI,2023.2.3,Win32,59.52380952,,,,,,,,,,,,,,,,,,,,,,,,,,,,,,,,993.335,994.6361,994.6361,995.6364,,,,,,1,0.5,,,,,,,,,,,,,,,,,,,,,,,,,,,,,,,,,,,,,,,,,,,,,,,,,,,,,0,36,36,77,1,,,,,,,,,,,,,,,,,,
,,,,,,,,Harbor,3,Female,Hispanic/Latino,N/A,2024-12-20_19h06.22.130,dissOSARI,2023.2.3,Win32,59.52380952,,,,,,,,,,,,,,,,,,,,,,,,,,,,,,,,995.637,996.487,996.487,997.4881,,,,,,0,0.5,,,,,,,,,,,,,,,,,,,,,,,,,,,,,,,,,,,,,,,,,,,,,,,,,,,,,0,37,37,47,1,,,,,,,,,,,,,,,,,,
,,,,,,,,Harbor,3,Female,Hispanic/Latino,N/A,2024-12-20_19h06.22.130,dissOSARI,2023.2.3,Win32,59.52380952,,,,,,,,,,,,,,,,,,,,,,,,,,,,,,,,997.4887,998.5548,998.5548,999.5568,,,,,,0,0.5,,,,,,,,,,,,,,,,,,,,,,,,,,,,,,,,,,,,,,,,,,,,,,,,,,,,,0,38,38,27,1,,,,,,,,,,,,,,,,,,
,,,,,,,,Harbor,3,Female,Hispanic/Latino,N/A,2024-12-20_19h06.22.130,dissOSARI,2023.2.3,Win32,59.52380952,,,,,,,,,,,,,,,,,,,,,,,,,,,,,,,,999.5572,1000.4401,1000.4401,1001.4417,,,,,,0,0.5,,,,,,,,,,,,,,,,,,,,,,,,,,,,,,,,,,,,,,,,,,,,,,,,,,,,,0,39,39,29,1,,,,,,,,,,,,,,,,,,
,,,,,,,,Harbor,3,Female,Hispanic/Latino,N/A,2024-12-20_19h06.22.130,dissOSARI,2023.2.3,Win32,59.52380952,,,,,,,,,,,,,,,,,,,,,,,,,,,,,,,,1001.4425,1002.6931,1002.6932,1003.6931,,,,,,1,0.5,,,,,,,,,,,,,,,,,,,,,,,,,,,,,,,,,,,,,,,,,,,,,,,,,,,,,0,40,40,76,1,,,,,,,,,,,,,,,,,,
,,,,,,,,Harbor,3,Female,Hispanic/Latino,N/A,2024-12-20_19h06.22.130,dissOSARI,2023.2.3,Win32,59.52380952,,,,,,,,,,,,,,,,,,,,,,,,,,,,,,,,1003.6938,1005.1609,1005.1609,1006.162,,,,,,0,0.5,,,,,,,,,,,,,,,,,,,,,,,,,,,,,,,,,,,,,,,,,,,,,,,,,,,,,0,41,41,30,1,,,,,,,,,,,,,,,,,,
,,,,,,,,Harbor,3,Female,Hispanic/Latino,N/A,2024-12-20_19h06.22.130,dissOSARI,2023.2.3,Win32,59.52380952,,,,,,,,,,,,,,,,,,,,,,,,,,,,,,,,1006.1629,1007.479,1007.479,1008.4809,,,,,,0,0.5,,,,,,,,,,,,,,,,,,,,,,,,,,,,,,,,,,,,,,,,,,,,,,,,,,,,,0,42,42,40,1,,,,,,,,,,,,,,,,,,
,,,,,,,,Harbor,3,Female,Hispanic/Latino,N/A,2024-12-20_19h06.22.130,dissOSARI,2023.2.3,Win32,59.52380952,,,,,,,,,,,,,,,,,,,,,,,,,,,,,,,,1008.4815,1009.6978,1009.6978,1010.6992,,,,,,0,0.5,,,,,,,,,,,,,,,,,,,,,,,,,,,,,,,,,,,,,,,,,,,,,,,,,,,,,0,43,43,24,1,,,,,,,,,,,,,,,,,,
,,,,,,,,Harbor,3,Female,Hispanic/Latino,N/A,2024-12-20_19h06.22.130,dissOSARI,2023.2.3,Win32,59.52380952,,,,,,,,,,,,,,,,,,,,,,,,,,,,,,,,1010.6998,1011.8326,1011.8326,1012.834,,,,,,0,0.5,,,,,,,,,,,,,,,,,,,,,,,,,,,,,,,,,,,,,,,,,,,,,,,,,,,,,0,44,44,49,1,,,,,,,,,,,,,,,,,,
,,,,,,,,Harbor,3,Female,Hispanic/Latino,N/A,2024-12-20_19h06.22.130,dissOSARI,2023.2.3,Win32,59.52380952,,,,,,,,,,,,,,,,,,,,,,,,,,,,,,,,1012.8344,1014.1012,1014.1013,1015.1025,,,,,,0,0.5,,,,,,,,,,,,,,,,,,,,,,,,,,,,,,,,,,,,,,,,,,,,,,,,,,,,,0,45,45,5,1,,,,,,,,,,,,,,,,,,
,,,,,,,,Harbor,3,Female,Hispanic/Latino,N/A,2024-12-20_19h06.22.130,dissOSARI,2023.2.3,Win32,59.52380952,,,,,,,,,,,,,,,,,,,,,,,,,,,,,,,,1015.1031,1016.0035,1016.0035,1017.0041,,,,,,0,0.5,,,,,,,,,,,,,,,,,,,,,,,,,,,,,,,,,,,,,,,,,,,,,,,,,,,,,0,46,46,36,1,,,,,,,,,,,,,,,,,,
,,,,,,,,Harbor,3,Female,Hispanic/Latino,N/A,2024-12-20_19h06.22.130,dissOSARI,2023.2.3,Win32,59.52380952,,,,,,,,,,,,,,,,,,,,,,,,,,,,,,,,1017.0048,1019.5888,1019.5888,1020.591,,,,,,0,0.5,,,,,,,,,,,,,,,,,,,,,,,,,,,,,,,,,,,,,,,,,,,,,,,,,,,,,0,47,47,16,1,,,,,,,,,,,,,,,,,,
,,,,,,,,Harbor,3,Female,Hispanic/Latino,N/A,2024-12-20_19h06.22.130,dissOSARI,2023.2.3,Win32,59.52380952,,,,,,,,,,,,,,,,,,,,,,,,,,,,,,,,1020.5917,1025.7621,1025.7622,1026.7622,,,,,,0,0.5,,,,,,,,,,,,,,,,,,,,,,,,,,,,,,,,,,,,,,,,,,,,,,,,,,,,,0,48,48,33,1,,,,,,,,,,,,,,,,,,
,,,,,,,,Harbor,3,Female,Hispanic/Latino,N/A,2024-12-20_19h06.22.130,dissOSARI,2023.2.3,Win32,59.52380952,,,,,,,,,,,,,,,,,,,,,,,,,,,,,,,,1026.7628,1033.3673,1033.3673,1034.3683,,,,,,0,0.5,,,,,,,,,,,,,,,,,,,,,,,,,,,,,,,,,,,,,,,,,,,,,,,,,,,,,0,49,49,50,1,,,,,,,,,,,,,,,,,,
,,,,,,,,Harbor,3,Female,Hispanic/Latino,N/A,2024-12-20_19h06.22.130,dissOSARI,2023.2.3,Win32,59.52380952,,,,,,,,,,,,,,,,,,,,,,,,,,,,,,,,1034.3692,1035.6526,1035.6526,1036.6537,,,,,,0,0.5,,,,,,,,,,,,,,,,,,,,,,,,,,,,,,,,,,,,,,,,,,,,,,,,,,,,,0,50,50,9,1,,,,,,,,,,,,,,,,,,
,,,,,,,,Harbor,3,Female,Hispanic/Latino,N/A,2024-12-20_19h06.22.130,dissOSARI,2023.2.3,Win32,59.52380952,,,,,,,,,,,,,,,,,,,,,,,,,,,,,,,,1036.6542,1038.0709,1038.0709,1039.0723,,,,,,1,0.5,,,,,,,,,,,,,,,,,,,,,,,,,,,,,,,,,,,,,,,,,,,,,,,,,,,,,0,51,51,75,1,,,,,,,,,,,,,,,,,,
,,,,,,,,Harbor,3,Female,Hispanic/Latino,N/A,2024-12-20_19h06.22.130,dissOSARI,2023.2.3,Win32,59.52380952,,,,,,,,,,,,,,,,,,,,,,,,,,,,,,,,1039.073,1040.3456,1040.3456,1041.3471,,,,,,0,0.5,,,,,,,,,,,,,,,,,,,,,,,,,,,,,,,,,,,,,,,,,,,,,,,,,,,,,0,52,52,8,1,,,,,,,,,,,,,,,,,,
,,,,,,,,Harbor,3,Female,Hispanic/Latino,N/A,2024-12-20_19h06.22.130,dissOSARI,2023.2.3,Win32,59.52380952,,,,,,,,,,,,,,,,,,,,,,,,,,,,,,,,1041.3474,1042.4648,1042.4648,1043.464,,,,,,0,0.5,,,,,,,,,,,,,,,,,,,,,,,,,,,,,,,,,,,,,,,,,,,,,,,,,,,,,0,53,53,11,1,,,,,,,,,,,,,,,,,,
,,,,,,,,Harbor,3,Female,Hispanic/Latino,N/A,2024-12-20_19h06.22.130,dissOSARI,2023.2.3,Win32,59.52380952,,,,,,,,,,,,,,,,,,,,,,,,,,,,,,,,1043.4643,1059.5611,1059.5611,1060.561,,,,,,0,0.5,,,,,,,,,,,,,,,,,,,,,,,,,,,,,,,,,,,,,,,,,,,,,,,,,,,,,0,54,54,15,1,,,,,,,,,,,,,,,,,,
,,,,,,,,Harbor,3,Female,Hispanic/Latino,N/A,2024-12-20_19h06.22.130,dissOSARI,2023.2.3,Win32,59.52380952,,,,,,,,,,,,,,,,,,,,,,,,,,,,,,,,1060.5614,1061.9474,1061.9474,1062.9473,,,,,,0,0.5,,,,,,,,,,,,,,,,,,,,,,,,,,,,,,,,,,,,,,,,,,,,,,,,,,,,,0,55,55,25,1,,,,,,,,,,,,,,,,,,
,,,,,,,,Harbor,3,Female,Hispanic/Latino,N/A,2024-12-20_19h06.22.130,dissOSARI,2023.2.3,Win32,59.52380952,,,,,,,,,,,,,,,,,,,,,,,,,,,,,,,,1062.9476,1064.0998,1064.0998,1065.099,,,,,,0,0.5,,,,,,,,,,,,,,,,,,,,,,,,,,,,,,,,,,,,,,,,,,,,,,,,,,,,,0,56,56,10,1,,,,,,,,,,,,,,,,,,
,,,,,,,,Harbor,3,Female,Hispanic/Latino,N/A,2024-12-20_19h06.22.130,dissOSARI,2023.2.3,Win32,59.52380952,,,,,,,,,,,,,,,,,,,,,,,,,,,,,,,,1065.0991,1067.3856,1067.3857,1068.38,,,,,,0,0.5,,,,,,,,,,,,,,,,,,,,,,,,,,,,,,,,,,,,,,,,,,,,,,,,,,,,,0,57,57,21,1,,,,,,,,,,,,,,,,,,
,,,,,,,,Harbor,3,Female,Hispanic/Latino,N/A,2024-12-20_19h06.22.130,dissOSARI,2023.2.3,Win32,59.52380952,,,,,,,,,,,,,,,,,,,,,,,,,,,,,,,,1068.3803,1069.6016,1069.6016,1070.5972,,,,,,0,0.5,,,,,,,,,,,,,,,,,,,,,,,,,,,,,,,,,,,,,,,,,,,,,,,,,,,,,0,58,58,39,1,,,,,,,,,,,,,,,,,,
,,,,,,,,Harbor,3,Female,Hispanic/Latino,N/A,2024-12-20_19h06.22.130,dissOSARI,2023.2.3,Win32,59.52380952,,,,,,,,,,,,,,,,,,,,,,,,,,,,,,,,1070.5973,1121.4901,1121.4902,1122.4913,,,,,,0,0.5,,,,,,,,,,,,,,,,,,,,,,,,,,,,,,,,,,,,,,,,,,,,,,,,,,,,,0,59,59,3,1,,,,,,,,,,,,,,,,,,
,,,,,,,,Harbor,3,Female,Hispanic/Latino,N/A,2024-12-20_19h06.22.130,dissOSARI,2023.2.3,Win32,59.52380952,,,,,,,,,,,,,,,,,,,,,,,,,,,,,,,,1122.4919,1132.4505,1132.4506,1133.4511,,,,,,0,0.5,,,,,,,,,,,,,,,,,,,,,,,,,,,,,,,,,,,,,,,,,,,,,,,,,,,,,0,60,60,34,1,,,,,,,,,,,,,,,,,,
,,,,,,,,Harbor,3,Female,Hispanic/Latino,N/A,2024-12-20_19h06.22.130,dissOSARI,2023.2.3,Win32,59.52380952,,,,,,,,,,,,,,,,,,,,,,,,,,,,,,,,1133.4517,1134.8179,1134.8179,1135.8188,,,,,,1,0.5,,,,,,,,,,,,,,,,,,,,,,,,,,,,,,,,,,,,,,,,,,,,,,,,,,,,,0,61,61,73,1,,,,,,,,,,,,,,,,,,
,,,,,,,,Harbor,3,Female,Hispanic/Latino,N/A,2024-12-20_19h06.22.130,dissOSARI,2023.2.3,Win32,59.52380952,,,,,,,,,,,,,,,,,,,,,,,,,,,,,,,,1135.8193,1136.9361,1136.9361,1137.9376,,,,,,0,0.5,,,,,,,,,,,,,,,,,,,,,,,,,,,,,,,,,,,,,,,,,,,,,,,,,,,,,0,62,62,2,1,,,,,,,,,,,,,,,,,,
,,,,,,,,Harbor,3,Female,Hispanic/Latino,N/A,2024-12-20_19h06.22.130,dissOSARI,2023.2.3,Win32,59.52380952,,,,,,,,,,,,,,,,,,,,,,,,,,,,,,,,1137.9381,1139.0044,1139.0044,1140.0063,,,,,,0,0.5,,,,,,,,,,,,,,,,,,,,,,,,,,,,,,,,,,,,,,,,,,,,,,,,,,,,,0,63,63,55,1,,,,,,,,,,,,,,,,,,
,,,,,,,,Harbor,3,Female,Hispanic/Latino,N/A,2024-12-20_19h06.22.130,dissOSARI,2023.2.3,Win32,59.52380952,,,,,,,,,,,,,,,,,,,,,,,,,,,,,,,,1140.0069,1141.0891,1141.0891,1142.0906,,,,,,0,0.5,,,,,,,,,,,,,,,,,,,,,,,,,,,,,,,,,,,,,,,,,,,,,,,,,,,,,0,64,64,20,1,,,,,,,,,,,,,,,,,,
,,,,,,,,Harbor,3,Female,Hispanic/Latino,N/A,2024-12-20_19h06.22.130,dissOSARI,2023.2.3,Win32,59.52380952,,,,,,,,,,,,,,,,,,,,,,,,,,,,,,,,1142.0913,1143.1911,1143.1911,1144.1924,,,,,,1,0.5,,,,,,,,,,,,,,,,,,,,,,,,,,,,,,,,,,,,,,,,,,,,,,,,,,,,,0,65,65,78,1,,,,,,,,,,,,,,,,,,
,,,,,,,,Harbor,3,Female,Hispanic/Latino,N/A,2024-12-20_19h06.22.130,dissOSARI,2023.2.3,Win32,59.52380952,,,,,,,,,,,,,,,,,,,,,,,,,,,,,,,,1144.1929,1145.4433,1145.4434,1146.4446,,,,,,0,0.5,,,,,,,,,,,,,,,,,,,,,,,,,,,,,,,,,,,,,,,,,,,,,,,,,,,,,0,66,66,48,1,,,,,,,,,,,,,,,,,,
,,,,,,,,Harbor,3,Female,Hispanic/Latino,N/A,2024-12-20_19h06.22.130,dissOSARI,2023.2.3,Win32,59.52380952,,,,,,,,,,,,,,,,,,,,,,,,,,,,,,,,1146.4451,1147.7453,1147.7453,1148.7465,,,,,,0,0.5,,,,,,,,,,,,,,,,,,,,,,,,,,,,,,,,,,,,,,,,,,,,,,,,,,,,,0,67,67,7,1,,,,,,,,,,,,,,,,,,
,,,,,,,,Harbor,3,Female,Hispanic/Latino,N/A,2024-12-20_19h06.22.130,dissOSARI,2023.2.3,Win32,59.52380952,,,,,,,,,,,,,,,,,,,,,,,,,,,,,,,,1148.7468,1149.9466,1149.9466,1150.9488,,,,,,0,0.5,,,,,,,,,,,,,,,,,,,,,,,,,,,,,,,,,,,,,,,,,,,,,,,,,,,,,0,68,68,12,1,,,,,,,,,,,,,,,,,,
,,,,,,,,Harbor,3,Female,Hispanic/Latino,N/A,2024-12-20_19h06.22.130,dissOSARI,2023.2.3,Win32,59.52380952,,,,,,,,,,,,,,,,,,,,,,,,,,,,,,,,1150.9494,1152.115,1152.115,1153.1172,,,,,,0,0.5,,,,,,,,,,,,,,,,,,,,,,,,,,,,,,,,,,,,,,,,,,,,,,,,,,,,,0,69,69,46,1,,,,,,,,,,,,,,,,,,
,,,,,,,,Harbor,3,Female,Hispanic/Latino,N/A,2024-12-20_19h06.22.130,dissOSARI,2023.2.3,Win32,59.52380952,,,,,,,,,,,,,,,,,,,,,,,,,,,,,,,,1153.1178,1154.2837,1154.2837,1155.2851,,,,,,1,0.5,,,,,,,,,,,,,,,,,,,,,,,,,,,,,,,,,,,,,,,,,,,,,,,,,,,,,0,70,70,74,1,,,,,,,,,,,,,,,,,,
,,,,,,,,Harbor,3,Female,Hispanic/Latino,N/A,2024-12-20_19h06.22.130,dissOSARI,2023.2.3,Win32,59.52380952,,,,,,,,,,,,,,,,,,,,,,,,,,,,,,,,1155.2857,1156.8546,1156.8547,1157.8538,,,,,,1,0.5,,,,,,,,,,,,,,,,,,,,,,,,,,,,,,,,,,,,,,,,,,,,,,,,,,,,,0,71,71,68,1,,,,,,,,,,,,,,,,,,
,,,,,,,,Harbor,3,Female,Hispanic/Latino,N/A,2024-12-20_19h06.22.130,dissOSARI,2023.2.3,Win32,59.52380952,,,,,,,,,,,,,,,,,,,,,,,,,,,,,,,,1157.8543,1159.2395,1159.2396,1160.2395,,,,,,1,0.5,,,,,,,,,,,,,,,,,,,,,,,,,,,,,,,,,,,,,,,,,,,,,,,,,,,,,0,72,72,66,1,,,,,,,,,,,,,,,,,,
,,,,,,,,Harbor,3,Female,Hispanic/Latino,N/A,2024-12-20_19h06.22.130,dissOSARI,2023.2.3,Win32,59.52380952,,,,,,,,,,,,,,,,,,,,,,,,,,,,,,,,1160.2401,1161.3566,1161.3566,1162.358,,,,,,0,0.5,,,,,,,,,,,,,,,,,,,,,,,,,,,,,,,,,,,,,,,,,,,,,,,,,,,,,0,73,73,4,1,,,,,,,,,,,,,,,,,,
,,,,,,,,Harbor,3,Female,Hispanic/Latino,N/A,2024-12-20_19h06.22.130,dissOSARI,2023.2.3,Win32,59.52380952,,,,,,,,,,,,,,,,,,,,,,,,,,,,,,,,1162.3586,1163.6919,1163.6919,1164.6934,,,,,,1,0.5,,,,,,,,,,,,,,,,,,,,,,,,,,,,,,,,,,,,,,,,,,,,,,,,,,,,,0,74,74,62,1,,,,,,,,,,,,,,,,,,
,,,,,,,,Harbor,3,Female,Hispanic/Latino,N/A,2024-12-20_19h06.22.130,dissOSARI,2023.2.3,Win32,59.52380952,,,,,,,,,,,,,,,,,,,,,,,,,,,,,,,,1164.6943,1165.9604,1165.9605,1166.962,,,,,,0,0.5,,,,,,,,,,,,,,,,,,,,,,,,,,,,,,,,,,,,,,,,,,,,,,,,,,,,,0,75,75,32,1,,,,,,,,,,,,,,,,,,
,,,,,,,,Harbor,3,Female,Hispanic/Latino,N/A,2024-12-20_19h06.22.130,dissOSARI,2023.2.3,Win32,59.52380952,,,,,,,,,,,,,,,,,,,,,,,,,,,,,,,,1166.9625,1168.0286,1168.0287,1169.0304,,,,,,0,0.5,,,,,,,,,,,,,,,,,,,,,,,,,,,,,,,,,,,,,,,,,,,,,,,,,,,,,0,76,76,38,1,,,,,,,,,,,,,,,,,,
,,,,,,,,Harbor,3,Female,Hispanic/Latino,N/A,2024-12-20_19h06.22.130,dissOSARI,2023.2.3,Win32,59.52380952,,,,,,,,,,,,,,,,,,,,,,,,,,,,,,,,1169.0311,1170.2638,1170.2638,1171.2657,,,,,,1,0.5,,,,,,,,,,,,,,,,,,,,,,,,,,,,,,,,,,,,,,,,,,,,,,,,,,,,,0,77,77,70,1,,,,,,,,,,,,,,,,,,
,,,,,,,,Harbor,3,Female,Hispanic/Latino,N/A,2024-12-20_19h06.22.130,dissOSARI,2023.2.3,Win32,59.52380952,,,,,,,,,,,,,,,,,,,,,,,,,,,,,,,,1171.2662,1172.4833,1172.4833,1173.4835,,,,,,0,0.5,,,,,,,,,,,,,,,,,,,,,,,,,,,,,,,,,,,,,,,,,,,,,,,,,,,,,0,78,78,28,1,,,,,,,,,,,,,,,,,,
,,,,,,,,Harbor,3,Female,Hispanic/Latino,N/A,2024-12-20_19h06.22.130,dissOSARI,2023.2.3,Win32,59.52380952,,,,,,,,,,,,,,,,,,,,,,,,,,,,,,,,1173.4839,1174.4838,1174.4839,1175.4856,,,,,,0,0.5,,,,,,,,,,,,,,,,,,,,,,,,,,,,,,,,,,,,,,,,,,,,,,,,,,,,,0,79,79,6,1,,,,,,,,,,,,,,,,,,
,,,,,,,,Harbor,3,Female,Hispanic/Latino,N/A,2024-12-20_19h06.22.130,dissOSARI,2023.2.3,Win32,59.52380952,,,,,,,,,,,,,,,,,,,,,,,,,,,,,,,,1176.4572,1176.5356,1176.5356,1177.5372,,,,,,0,0.5,,,,,,,,,,,,,,,,,,,,,,,,,,,,,,,,,,,,,,,,,,,,,,,,,,,1175.4868,1176.4526,0,0,0,48,1,,,,,,,,,,,,,,,,,,
,,,,,,,,Harbor,3,Female,Hispanic/Latino,N/A,2024-12-20_19h06.22.130,dissOSARI,2023.2.3,Win32,59.52380952,,,,,,,,,,,,,,,,,,,,,,,,,,,,,,,,1177.5378,1178.8535,1178.8536,1179.8554,,,,,,0,0.5,,,,,,,,,,,,,,,,,,,,,,,,,,,,,,,,,,,,,,,,,,,,,,,,,,,,,0,1,1,24,1,,,,,,,,,,,,,,,,,,
,,,,,,,,Harbor,3,Female,Hispanic/Latino,N/A,2024-12-20_19h06.22.130,dissOSARI,2023.2.3,Win32,59.52380952,,,,,,,,,,,,,,,,,,,,,,,,,,,,,,,,1179.8558,1181.2061,1181.2061,1182.208,,,,,,0,0.5,,,,,,,,,,,,,,,,,,,,,,,,,,,,,,,,,,,,,,,,,,,,,,,,,,,,,0,2,2,51,1,,,,,,,,,,,,,,,,,,
,,,,,,,,Harbor,3,Female,Hispanic/Latino,N/A,2024-12-20_19h06.22.130,dissOSARI,2023.2.3,Win32,59.52380952,,,,,,,,,,,,,,,,,,,,,,,,,,,,,,,,1182.2086,1183.9081,1183.9081,1184.9102,,,,,,0,0.5,,,,,,,,,,,,,,,,,,,,,,,,,,,,,,,,,,,,,,,,,,,,,,,,,,,,,0,3,3,41,1,,,,,,,,,,,,,,,,,,
,,,,,,,,Harbor,3,Female,Hispanic/Latino,N/A,2024-12-20_19h06.22.130,dissOSARI,2023.2.3,Win32,59.52380952,,,,,,,,,,,,,,,,,,,,,,,,,,,,,,,,1184.9109,1186.3105,1186.3105,1187.3122,,,,,,1,0.5,,,,,,,,,,,,,,,,,,,,,,,,,,,,,,,,,,,,,,,,,,,,,,,,,,,,,0,4,4,69,1,,,,,,,,,,,,,,,,,,
,,,,,,,,Harbor,3,Female,Hispanic/Latino,N/A,2024-12-20_19h06.22.130,dissOSARI,2023.2.3,Win32,59.52380952,,,,,,,,,,,,,,,,,,,,,,,,,,,,,,,,1187.313,1188.9635,1188.9635,1189.9638,,,,,,1,0.5,,,,,,,,,,,,,,,,,,,,,,,,,,,,,,,,,,,,,,,,,,,,,,,,,,,,,0,5,5,61,1,,,,,,,,,,,,,,,,,,
,,,,,,,,Harbor,3,Female,Hispanic/Latino,N/A,2024-12-20_19h06.22.130,dissOSARI,2023.2.3,Win32,59.52380952,,,,,,,,,,,,,,,,,,,,,,,,,,,,,,,,1189.9645,1191.2814,1191.2814,1192.2806,,,,,,0,0.5,,,,,,,,,,,,,,,,,,,,,,,,,,,,,,,,,,,,,,,,,,,,,,,,,,,,,0,6,6,22,1,,,,,,,,,,,,,,,,,,
,,,,,,,,Harbor,3,Female,Hispanic/Latino,N/A,2024-12-20_19h06.22.130,dissOSARI,2023.2.3,Win32,59.52380952,,,,,,,,,,,,,,,,,,,,,,,,,,,,,,,,1192.2809,1193.449,1193.449,1194.451,,,,,,0,0.5,,,,,,,,,,,,,,,,,,,,,,,,,,,,,,,,,,,,,,,,,,,,,,,,,,,,,0,7,7,26,1,,,,,,,,,,,,,,,,,,
,,,,,,,,Harbor,3,Female,Hispanic/Latino,N/A,2024-12-20_19h06.22.130,dissOSARI,2023.2.3,Win32,59.52380952,,,,,,,,,,,,,,,,,,,,,,,,,,,,,,,,1194.4517,1195.6356,1195.6357,1196.6367,,,,,,0,0.5,,,,,,,,,,,,,,,,,,,,,,,,,,,,,,,,,,,,,,,,,,,,,,,,,,,,,0,8,8,6,1,,,,,,,,,,,,,,,,,,
,,,,,,,,Harbor,3,Female,Hispanic/Latino,N/A,2024-12-20_19h06.22.130,dissOSARI,2023.2.3,Win32,59.52380952,,,,,,,,,,,,,,,,,,,,,,,,,,,,,,,,1196.6374,1197.9033,1197.9033,1198.9048,,,,,,0,0.5,,,,,,,,,,,,,,,,,,,,,,,,,,,,,,,,,,,,,,,,,,,,,,,,,,,,,0,9,9,21,1,,,,,,,,,,,,,,,,,,
,,,,,,,,Harbor,3,Female,Hispanic/Latino,N/A,2024-12-20_19h06.22.130,dissOSARI,2023.2.3,Win32,59.52380952,,,,,,,,,,,,,,,,,,,,,,,,,,,,,,,,1198.9053,1200.1884,1200.1884,1201.1879,,,,,,0,0.5,,,,,,,,,,,,,,,,,,,,,,,,,,,,,,,,,,,,,,,,,,,,,,,,,,,,,0,10,10,53,1,,,,,,,,,,,,,,,,,,
,,,,,,,,Harbor,3,Female,Hispanic/Latino,N/A,2024-12-20_19h06.22.130,dissOSARI,2023.2.3,Win32,59.52380952,,,,,,,,,,,,,,,,,,,,,,,,,,,,,,,,1201.188,1205.0266,1205.0267,1206.0271,,,,,,0,0.5,,,,,,,,,,,,,,,,,,,,,,,,,,,,,,,,,,,,,,,,,,,,,,,,,,,,,0,11,11,57,1,,,,,,,,,,,,,,,,,,
,,,,,,,,Harbor,3,Female,Hispanic/Latino,N/A,2024-12-20_19h06.22.130,dissOSARI,2023.2.3,Win32,59.52380952,,,,,,,,,,,,,,,,,,,,,,,,,,,,,,,,1206.0278,1207.1609,1207.161,1208.1623,,,,,,0,0.5,,,,,,,,,,,,,,,,,,,,,,,,,,,,,,,,,,,,,,,,,,,,,,,,,,,,,0,12,12,45,1,,,,,,,,,,,,,,,,,,
,,,,,,,,Harbor,3,Female,Hispanic/Latino,N/A,2024-12-20_19h06.22.130,dissOSARI,2023.2.3,Win32,59.52380952,,,,,,,,,,,,,,,,,,,,,,,,,,,,,,,,1208.1627,1210.8641,1210.8641,1211.8653,,,,,,1,0.5,,,,,,,,,,,,,,,,,,,,,,,,,,,,,,,,,,,,,,,,,,,,,,,,,,,,,0,13,13,62,1,,,,,,,,,,,,,,,,,,
,,,,,,,,Harbor,3,Female,Hispanic/Latino,N/A,2024-12-20_19h06.22.130,dissOSARI,2023.2.3,Win32,59.52380952,,,,,,,,,,,,,,,,,,,,,,,,,,,,,,,,1211.8656,1214.4333,1214.4333,1215.435,,,,,,1,0.5,,,,,,,,,,,,,,,,,,,,,,,,,,,,,,,,,,,,,,,,,,,,,,,,,,,,,0,14,14,71,1,,,,,,,,,,,,,,,,,,
,,,,,,,,Harbor,3,Female,Hispanic/Latino,N/A,2024-12-20_19h06.22.130,dissOSARI,2023.2.3,Win32,59.52380952,,,,,,,,,,,,,,,,,,,,,,,,,,,,,,,,1215.4359,1276.3006,1276.3006,1277.3027,,,,,,0,0.5,,,,,,,,,,,,,,,,,,,,,,,,,,,,,,,,,,,,,,,,,,,,,,,,,,,,,0,15,15,9,1,,,,,,,,,,,,,,,,,,
,,,,,,,,Harbor,3,Female,Hispanic/Latino,N/A,2024-12-20_19h06.22.130,dissOSARI,2023.2.3,Win32,59.52380952,,,,,,,,,,,,,,,,,,,,,,,,,,,,,,,,1277.303,1339.6035,1339.6035,1340.6049,,,,,,1,0.5,,,,,,,,,,,,,,,,,,,,,,,,,,,,,,,,,,,,,,,,,,,,,,,,,,,,,0,16,16,66,1,,,,,,,,,,,,,,,,,,
,,,,,,,,Harbor,3,Female,Hispanic/Latino,N/A,2024-12-20_19h06.22.130,dissOSARI,2023.2.3,Win32,59.52380952,,,,,,,,,,,,,,,,,,,,,,,,,,,,,,,,1340.6055,1342.4061,1342.4062,1343.4078,,,,,,0,0.5,,,,,,,,,,,,,,,,,,,,,,,,,,,,,,,,,,,,,,,,,,,,,,,,,,,,,0,17,17,32,1,,,,,,,,,,,,,,,,,,
,,,,,,,,Harbor,3,Female,Hispanic/Latino,N/A,2024-12-20_19h06.22.130,dissOSARI,2023.2.3,Win32,59.52380952,,,,,,,,,,,,,,,,,,,,,,,,,,,,,,,,1343.4084,1351.6468,1351.6469,1352.6482,,,,,,0,0.5,,,,,,,,,,,,,,,,,,,,,,,,,,,,,,,,,,,,,,,,,,,,,,,,,,,,,0,18,18,14,1,,,,,,,,,,,,,,,,,,
,,,,,,,,Harbor,3,Female,Hispanic/Latino,N/A,2024-12-20_19h06.22.130,dissOSARI,2023.2.3,Win32,59.52380952,,,,,,,,,,,,,,,,,,,,,,,,,,,,,,,,1352.6488,1356.7351,1356.7352,1357.7363,,,,,,1,0.5,,,,,,,,,,,,,,,,,,,,,,,,,,,,,,,,,,,,,,,,,,,,,,,,,,,,,0,19,19,73,1,,,,,,,,,,,,,,,,,,
,,,,,,,,Harbor,3,Female,Hispanic/Latino,N/A,2024-12-20_19h06.22.130,dissOSARI,2023.2.3,Win32,59.52380952,,,,,,,,,,,,,,,,,,,,,,,,,,,,,,,,1357.7369,1397.7853,1397.7853,1398.7866,,,,,,0,0.5,,,,,,,,,,,,,,,,,,,,,,,,,,,,,,,,,,,,,,,,,,,,,,,,,,,,,0,20,20,36,1,,,,,,,,,,,,,,,,,,
,,,,,,,,Harbor,3,Female,Hispanic/Latino,N/A,2024-12-20_19h06.22.130,dissOSARI,2023.2.3,Win32,59.52380952,,,,,,,,,,,,,,,,,,,,,,,,,,,,,,,,1398.7874,1508.2106,1508.2106,1509.2107,,,,,,0,0.5,,,,,,,,,,,,,,,,,,,,,,,,,,,,,,,,,,,,,,,,,,,,,,,,,,,,,0,21,21,35,1,,,,,,,,,,,,,,,,,,
,,,,,,,,Harbor,3,Female,Hispanic/Latino,N/A,2024-12-20_19h06.22.130,dissOSARI,2023.2.3,Win32,59.52380952,,,,,,,,,,,,,,,,,,,,,,,,,,,,,,,,1509.2114,1534.1142,1534.1142,1535.1159,,,,,,0,0.5,,,,,,,,,,,,,,,,,,,,,,,,,,,,,,,,,,,,,,,,,,,,,,,,,,,,,0,22,22,33,1,,,,,,,,,,,,,,,,,,
,,,,,,,,Harbor,3,Female,Hispanic/Latino,N/A,2024-12-20_19h06.22.130,dissOSARI,2023.2.3,Win32,59.52380952,,,,,,,,,,,,,,,,,,,,,,,,,,,,,,,,1535.1166,1550.1948,1550.1948,1551.1962,,,,,,0,0.5,,,,,,,,,,,,,,,,,,,,,,,,,,,,,,,,,,,,,,,,,,,,,,,,,,,,,0,23,23,28,1,,,,,,,,,,,,,,,,,,
,,,,,,,,Harbor,3,Female,Hispanic/Latino,N/A,2024-12-20_19h06.22.130,dissOSARI,2023.2.3,Win32,59.52380952,,,,,,,,,,,,,,,,,,,,,,,,,,,,,,,,1551.197,1553.3971,1553.3971,1554.3986,,,,,,1,0.5,,,,,,,,,,,,,,,,,,,,,,,,,,,,,,,,,,,,,,,,,,,,,,,,,,,,,0,24,24,79,1,,,,,,,,,,,,,,,,,,
,,,,,,,,Harbor,3,Female,Hispanic/Latino,N/A,2024-12-20_19h06.22.130,dissOSARI,2023.2.3,Win32,59.52380952,,,,,,,,,,,,,,,,,,,,,,,,,,,,,,,,1554.3992,1575.2818,1575.2819,1576.2836,,,,,,0,0.5,,,,,,,,,,,,,,,,,,,,,,,,,,,,,,,,,,,,,,,,,,,,,,,,,,,,,0,25,25,56,1,,,,,,,,,,,,,,,,,,
,,,,,,,,Harbor,3,Female,Hispanic/Latino,N/A,2024-12-20_19h06.22.130,dissOSARI,2023.2.3,Win32,59.52380952,,,,,,,,,,,,,,,,,,,,,,,,,,,,,,,,1576.2842,1579.6683,1579.6684,1580.6699,,,,,,0,0.5,,,,,,,,,,,,,,,,,,,,,,,,,,,,,,,,,,,,,,,,,,,,,,,,,,,,,0,26,26,4,1,,,,,,,,,,,,,,,,,,
,,,,,,,,Harbor,3,Female,Hispanic/Latino,N/A,2024-12-20_19h06.22.130,dissOSARI,2023.2.3,Win32,59.52380952,,,,,,,,,,,,,,,,,,,,,,,,,,,,,,,,1580.6705,1602.1712,1602.1713,1603.172,,,,,,0,0.5,,,,,,,,,,,,,,,,,,,,,,,,,,,,,,,,,,,,,,,,,,,,,,,,,,,,,0,27,27,42,1,,,,,,,,,,,,,,,,,,
,,,,,,,,Harbor,3,Female,Hispanic/Latino,N/A,2024-12-20_19h06.22.130,dissOSARI,2023.2.3,Win32,59.52380952,,,,,,,,,,,,,,,,,,,,,,,,,,,,,,,,1603.1721,1694.8522,1694.8522,1695.8488,,,,,,1,0.5,,,,,,,,,,,,,,,,,,,,,,,,,,,,,,,,,,,,,,,,,,,,,,,,,,,,,0,28,28,68,1,,,,,,,,,,,,,,,,,,
,,,,,,,,Harbor,3,Female,Hispanic/Latino,N/A,2024-12-20_19h06.22.130,dissOSARI,2023.2.3,Win32,59.52380952,,,,,,,,,,,,,,,,,,,,,,,,,,,,,,,,1695.8496,1702.6089,1702.609,1703.6047,,,,,,0,0.5,,,,,,,,,,,,,,,,,,,,,,,,,,,,,,,,,,,,,,,,,,,,,,,,,,,,,0,29,29,37,1,,,,,,,,,,,,,,,,,,
,,,,,,,,Harbor,3,Female,Hispanic/Latino,N/A,2024-12-20_19h06.22.130,dissOSARI,2023.2.3,Win32,59.52380952,,,,,,,,,,,,,,,,,,,,,,,,,,,,,,,,1703.6053,1704.7764,1704.7764,1705.7774,,,,,,0,0.5,,,,,,,,,,,,,,,,,,,,,,,,,,,,,,,,,,,,,,,,,,,,,,,,,,,,,0,30,30,55,1,,,,,,,,,,,,,,,,,,
,,,,,,,,Harbor,3,Female,Hispanic/Latino,N/A,2024-12-20_19h06.22.130,dissOSARI,2023.2.3,Win32,59.52380952,,,,,,,,,,,,,,,,,,,,,,,,,,,,,,,,1705.7776,1706.7394,1706.7394,1707.7412,,,,,,0,0.5,,,,,,,,,,,,,,,,,,,,,,,,,,,,,,,,,,,,,,,,,,,,,,,,,,,,,0,31,31,59,1,,,,,,,,,,,,,,,,,,
,,,,,,,,Harbor,3,Female,Hispanic/Latino,N/A,2024-12-20_19h06.22.130,dissOSARI,2023.2.3,Win32,59.52380952,,,,,,,,,,,,,,,,,,,,,,,,,,,,,,,,1707.7421,1708.6423,1708.6424,1709.6429,,,,,,0,0.5,,,,,,,,,,,,,,,,,,,,,,,,,,,,,,,,,,,,,,,,,,,,,,,,,,,,,0,32,32,16,1,,,,,,,,,,,,,,,,,,
,,,,,,,,Harbor,3,Female,Hispanic/Latino,N/A,2024-12-20_19h06.22.130,dissOSARI,2023.2.3,Win32,59.52380952,,,,,,,,,,,,,,,,,,,,,,,,,,,,,,,,1709.6434,1710.5602,1710.5602,1711.5613,,,,,,0,0.5,,,,,,,,,,,,,,,,,,,,,,,,,,,,,,,,,,,,,,,,,,,,,,,,,,,,,0,33,33,43,1,,,,,,,,,,,,,,,,,,
,,,,,,,,Harbor,3,Female,Hispanic/Latino,N/A,2024-12-20_19h06.22.130,dissOSARI,2023.2.3,Win32,59.52380952,,,,,,,,,,,,,,,,,,,,,,,,,,,,,,,,1711.562,1712.3792,1712.3792,1713.3794,,,,,,0,0.5,,,,,,,,,,,,,,,,,,,,,,,,,,,,,,,,,,,,,,,,,,,,,,,,,,,,,0,34,34,54,1,,,,,,,,,,,,,,,,,,
,,,,,,,,Harbor,3,Female,Hispanic/Latino,N/A,2024-12-20_19h06.22.130,dissOSARI,2023.2.3,Win32,59.52380952,,,,,,,,,,,,,,,,,,,,,,,,,,,,,,,,1713.38,1714.4966,1714.4966,1715.4978,,,,,,0,0.5,,,,,,,,,,,,,,,,,,,,,,,,,,,,,,,,,,,,,,,,,,,,,,,,,,,,,0,35,35,7,1,,,,,,,,,,,,,,,,,,
,,,,,,,,Harbor,3,Female,Hispanic/Latino,N/A,2024-12-20_19h06.22.130,dissOSARI,2023.2.3,Win32,59.52380952,,,,,,,,,,,,,,,,,,,,,,,,,,,,,,,,1715.4985,1716.398,1716.3981,1717.3998,,,,,,0,0.5,,,,,,,,,,,,,,,,,,,,,,,,,,,,,,,,,,,,,,,,,,,,,,,,,,,,,0,36,36,5,1,,,,,,,,,,,,,,,,,,
,,,,,,,,Harbor,3,Female,Hispanic/Latino,N/A,2024-12-20_19h06.22.130,dissOSARI,2023.2.3,Win32,59.52380952,,,,,,,,,,,,,,,,,,,,,,,,,,,,,,,,1717.4005,1718.4331,1718.4331,1719.4219,,,,,,0,0.5,,,,,,,,,,,,,,,,,,,,,,,,,,,,,,,,,,,,,,,,,,,,,,,,,,,,,0,37,37,0,1,,,,,,,,,,,,,,,,,,
,,,,,,,,Harbor,3,Female,Hispanic/Latino,N/A,2024-12-20_19h06.22.130,dissOSARI,2023.2.3,Win32,59.52380952,,,,,,,,,,,,,,,,,,,,,,,,,,,,,,,,1719.4221,1720.4923,1720.4923,1721.4922,,,,,,0,0.5,,,,,,,,,,,,,,,,,,,,,,,,,,,,,,,,,,,,,,,,,,,,,,,,,,,,,0,38,38,17,1,,,,,,,,,,,,,,,,,,
,,,,,,,,Harbor,3,Female,Hispanic/Latino,N/A,2024-12-20_19h06.22.130,dissOSARI,2023.2.3,Win32,59.52380952,,,,,,,,,,,,,,,,,,,,,,,,,,,,,,,,1721.4925,1722.5255,1722.5255,1723.525,,,,,,1,0.5,,,,,,,,,,,,,,,,,,,,,,,,,,,,,,,,,,,,,,,,,,,,,,,,,,,,,0,39,39,74,1,,,,,,,,,,,,,,,,,,
,,,,,,,,Harbor,3,Female,Hispanic/Latino,N/A,2024-12-20_19h06.22.130,dissOSARI,2023.2.3,Win32,59.52380952,,,,,,,,,,,,,,,,,,,,,,,,,,,,,,,,1723.5252,1724.7104,1724.7104,1725.7098,,,,,,0,0.5,,,,,,,,,,,,,,,,,,,,,,,,,,,,,,,,,,,,,,,,,,,,,,,,,,,,,0,40,40,23,1,,,,,,,,,,,,,,,,,,
,,,,,,,,Harbor,3,Female,Hispanic/Latino,N/A,2024-12-20_19h06.22.130,dissOSARI,2023.2.3,Win32,59.52380952,,,,,,,,,,,,,,,,,,,,,,,,,,,,,,,,1725.7099,1726.8452,1726.8452,1727.8484,,,,,,1,0.5,,,,,,,,,,,,,,,,,,,,,,,,,,,,,,,,,,,,,,,,,,,,,,,,,,,,,0,41,41,65,1,,,,,,,,,,,,,,,,,,
,,,,,,,,Harbor,3,Female,Hispanic/Latino,N/A,2024-12-20_19h06.22.130,dissOSARI,2023.2.3,Win32,59.52380952,,,,,,,,,,,,,,,,,,,,,,,,,,,,,,,,1727.8486,1729.0301,1729.0301,1730.0298,,,,,,0,0.5,,,,,,,,,,,,,,,,,,,,,,,,,,,,,,,,,,,,,,,,,,,,,,,,,,,,,0,42,42,2,1,,,,,,,,,,,,,,,,,,
,,,,,,,,Harbor,3,Female,Hispanic/Latino,N/A,2024-12-20_19h06.22.130,dissOSARI,2023.2.3,Win32,59.52380952,,,,,,,,,,,,,,,,,,,,,,,,,,,,,,,,1730.03,1731.0823,1731.0823,1732.0814,,,,,,0,0.5,,,,,,,,,,,,,,,,,,,,,,,,,,,,,,,,,,,,,,,,,,,,,,,,,,,,,0,43,43,58,1,,,,,,,,,,,,,,,,,,
,,,,,,,,Harbor,3,Female,Hispanic/Latino,N/A,2024-12-20_19h06.22.130,dissOSARI,2023.2.3,Win32,59.52380952,,,,,,,,,,,,,,,,,,,,,,,,,,,,,,,,1732.0815,1733.4506,1733.4506,1734.4515,,,,,,1,0.5,,,,,,,,,,,,,,,,,,,,,,,,,,,,,,,,,,,,,,,,,,,,,,,,,,,,,0,44,44,60,1,,,,,,,,,,,,,,,,,,
,,,,,,,,Harbor,3,Female,Hispanic/Latino,N/A,2024-12-20_19h06.22.130,dissOSARI,2023.2.3,Win32,59.52380952,,,,,,,,,,,,,,,,,,,,,,,,,,,,,,,,1734.4519,1735.6039,1735.6039,1736.6023,,,,,,1,0.5,,,,,,,,,,,,,,,,,,,,,,,,,,,,,,,,,,,,,,,,,,,,,,,,,,,,,0,45,45,63,1,,,,,,,,,,,,,,,,,,
,,,,,,,,Harbor,3,Female,Hispanic/Latino,N/A,2024-12-20_19h06.22.130,dissOSARI,2023.2.3,Win32,59.52380952,,,,,,,,,,,,,,,,,,,,,,,,,,,,,,,,1736.6024,1737.6208,1737.6208,1738.6214,,,,,,0,0.5,,,,,,,,,,,,,,,,,,,,,,,,,,,,,,,,,,,,,,,,,,,,,,,,,,,,,0,46,46,3,1,,,,,,,,,,,,,,,,,,
,,,,,,,,Harbor,3,Female,Hispanic/Latino,N/A,2024-12-20_19h06.22.130,dissOSARI,2023.2.3,Win32,59.52380952,,,,,,,,,,,,,,,,,,,,,,,,,,,,,,,,1738.6218,1739.6718,1739.6718,1740.6729,,,,,,1,0.5,,,,,,,,,,,,,,,,,,,,,,,,,,,,,,,,,,,,,,,,,,,,,,,,,,,,,0,47,47,70,1,,,,,,,,,,,,,,,,,,
,,,,,,,,Harbor,3,Female,Hispanic/Latino,N/A,2024-12-20_19h06.22.130,dissOSARI,2023.2.3,Win32,59.52380952,,,,,,,,,,,,,,,,,,,,,,,,,,,,,,,,1740.6732,1741.5572,1741.5572,1742.5521,,,,,,0,0.5,,,,,,,,,,,,,,,,,,,,,,,,,,,,,,,,,,,,,,,,,,,,,,,,,,,,,0,48,48,34,1,,,,,,,,,,,,,,,,,,
,,,,,,,,Harbor,3,Female,Hispanic/Latino,N/A,2024-12-20_19h06.22.130,dissOSARI,2023.2.3,Win32,59.52380952,,,,,,,,,,,,,,,,,,,,,,,,,,,,,,,,1742.5524,1743.4421,1743.4421,1744.4386,,,,,,1,0.5,,,,,,,,,,,,,,,,,,,,,,,,,,,,,,,,,,,,,,,,,,,,,,,,,,,,,0,49,49,72,1,,,,,,,,,,,,,,,,,,
,,,,,,,,Harbor,3,Female,Hispanic/Latino,N/A,2024-12-20_19h06.22.130,dissOSARI,2023.2.3,Win32,59.52380952,,,,,,,,,,,,,,,,,,,,,,,,,,,,,,,,1744.4388,1745.5288,1745.5288,1746.5291,,,,,,0,0.5,,,,,,,,,,,,,,,,,,,,,,,,,,,,,,,,,,,,,,,,,,,,,,,,,,,,,0,50,50,47,1,,,,,,,,,,,,,,,,,,
,,,,,,,,Harbor,3,Female,Hispanic/Latino,N/A,2024-12-20_19h06.22.130,dissOSARI,2023.2.3,Win32,59.52380952,,,,,,,,,,,,,,,,,,,,,,,,,,,,,,,,1746.5295,1747.4952,1747.4952,1748.4963,,,,,,0,0.5,,,,,,,,,,,,,,,,,,,,,,,,,,,,,,,,,,,,,,,,,,,,,,,,,,,,,0,51,51,31,1,,,,,,,,,,,,,,,,,,
,,,,,,,,Harbor,3,Female,Hispanic/Latino,N/A,2024-12-20_19h06.22.130,dissOSARI,2023.2.3,Win32,59.52380952,,,,,,,,,,,,,,,,,,,,,,,,,,,,,,,,1748.4965,1749.4303,1749.4303,1750.4259,,,,,,0,0.5,,,,,,,,,,,,,,,,,,,,,,,,,,,,,,,,,,,,,,,,,,,,,,,,,,,,,0,52,52,1,1,,,,,,,,,,,,,,,,,,
,,,,,,,,Harbor,3,Female,Hispanic/Latino,N/A,2024-12-20_19h06.22.130,dissOSARI,2023.2.3,Win32,59.52380952,,,,,,,,,,,,,,,,,,,,,,,,,,,,,,,,1750.426,1751.5148,1751.5148,1752.5122,,,,,,0,0.5,,,,,,,,,,,,,,,,,,,,,,,,,,,,,,,,,,,,,,,,,,,,,,,,,,,,,0,53,53,11,1,,,,,,,,,,,,,,,,,,
,,,,,,,,Harbor,3,Female,Hispanic/Latino,N/A,2024-12-20_19h06.22.130,dissOSARI,2023.2.3,Win32,59.52380952,,,,,,,,,,,,,,,,,,,,,,,,,,,,,,,,1752.5129,1753.585,1753.585,1754.5849,,,,,,0,0.5,,,,,,,,,,,,,,,,,,,,,,,,,,,,,,,,,,,,,,,,,,,,,,,,,,,,,0,54,54,8,1,,,,,,,,,,,,,,,,,,
,,,,,,,,Harbor,3,Female,Hispanic/Latino,N/A,2024-12-20_19h06.22.130,dissOSARI,2023.2.3,Win32,59.52380952,,,,,,,,,,,,,,,,,,,,,,,,,,,,,,,,1754.5851,1755.669,1755.669,1756.6702,,,,,,0,0.5,,,,,,,,,,,,,,,,,,,,,,,,,,,,,,,,,,,,,,,,,,,,,,,,,,,,,0,55,55,44,1,,,,,,,,,,,,,,,,,,
,,,,,,,,Harbor,3,Female,Hispanic/Latino,N/A,2024-12-20_19h06.22.130,dissOSARI,2023.2.3,Win32,59.52380952,,,,,,,,,,,,,,,,,,,,,,,,,,,,,,,,1756.6705,1757.6394,1757.6394,1758.6329,,,,,,0,0.5,,,,,,,,,,,,,,,,,,,,,,,,,,,,,,,,,,,,,,,,,,,,,,,,,,,,,0,56,56,18,1,,,,,,,,,,,,,,,,,,
,,,,,,,,Harbor,3,Female,Hispanic/Latino,N/A,2024-12-20_19h06.22.130,dissOSARI,2023.2.3,Win32,59.52380952,,,,,,,,,,,,,,,,,,,,,,,,,,,,,,,,1758.6331,1759.4893,1759.4894,1760.4895,,,,,,0,0.5,,,,,,,,,,,,,,,,,,,,,,,,,,,,,,,,,,,,,,,,,,,,,,,,,,,,,0,57,57,29,1,,,,,,,,,,,,,,,,,,
,,,,,,,,Harbor,3,Female,Hispanic/Latino,N/A,2024-12-20_19h06.22.130,dissOSARI,2023.2.3,Win32,59.52380952,,,,,,,,,,,,,,,,,,,,,,,,,,,,,,,,1760.4898,1761.4069,1761.407,1762.4067,,,,,,0,0.5,,,,,,,,,,,,,,,,,,,,,,,,,,,,,,,,,,,,,,,,,,,,,,,,,,,,,0,58,58,13,1,,,,,,,,,,,,,,,,,,
,,,,,,,,Harbor,3,Female,Hispanic/Latino,N/A,2024-12-20_19h06.22.130,dissOSARI,2023.2.3,Win32,59.52380952,,,,,,,,,,,,,,,,,,,,,,,,,,,,,,,,1762.4069,1763.4091,1763.4092,1764.4033,,,,,,1,0.5,,,,,,,,,,,,,,,,,,,,,,,,,,,,,,,,,,,,,,,,,,,,,,,,,,,,,0,59,59,67,1,,,,,,,,,,,,,,,,,,
,,,,,,,,Harbor,3,Female,Hispanic/Latino,N/A,2024-12-20_19h06.22.130,dissOSARI,2023.2.3,Win32,59.52380952,,,,,,,,,,,,,,,,,,,,,,,,,,,,,,,,1764.4034,1765.5602,1765.5603,1766.5605,,,,,,0,0.5,,,,,,,,,,,,,,,,,,,,,,,,,,,,,,,,,,,,,,,,,,,,,,,,,,,,,0,60,60,40,1,,,,,,,,,,,,,,,,,,
,,,,,,,,Harbor,3,Female,Hispanic/Latino,N/A,2024-12-20_19h06.22.130,dissOSARI,2023.2.3,Win32,59.52380952,,,,,,,,,,,,,,,,,,,,,,,,,,,,,,,,1766.5606,1767.7948,1767.7948,1768.7961,,,,,,0,0.5,,,,,,,,,,,,,,,,,,,,,,,,,,,,,,,,,,,,,,,,,,,,,,,,,,,,,0,61,61,39,1,,,,,,,,,,,,,,,,,,
,,,,,,,,Harbor,3,Female,Hispanic/Latino,N/A,2024-12-20_19h06.22.130,dissOSARI,2023.2.3,Win32,59.52380952,,,,,,,,,,,,,,,,,,,,,,,,,,,,,,,,1768.7962,1770.1476,1770.1476,1771.1424,,,,,,0,0.5,,,,,,,,,,,,,,,,,,,,,,,,,,,,,,,,,,,,,,,,,,,,,,,,,,,,,0,62,62,49,1,,,,,,,,,,,,,,,,,,
,,,,,,,,Harbor,3,Female,Hispanic/Latino,N/A,2024-12-20_19h06.22.130,dissOSARI,2023.2.3,Win32,59.52380952,,,,,,,,,,,,,,,,,,,,,,,,,,,,,,,,1771.1426,1772.2155,1772.2155,1773.2174,,,,,,0,0.5,,,,,,,,,,,,,,,,,,,,,,,,,,,,,,,,,,,,,,,,,,,,,,,,,,,,,0,63,63,27,1,,,,,,,,,,,,,,,,,,
,,,,,,,,Harbor,3,Female,Hispanic/Latino,N/A,2024-12-20_19h06.22.130,dissOSARI,2023.2.3,Win32,59.52380952,,,,,,,,,,,,,,,,,,,,,,,,,,,,,,,,1773.2176,1774.4173,1774.4173,1775.4124,,,,,,0,0.5,,,,,,,,,,,,,,,,,,,,,,,,,,,,,,,,,,,,,,,,,,,,,,,,,,,,,0,64,64,50,1,,,,,,,,,,,,,,,,,,
,,,,,,,,Harbor,3,Female,Hispanic/Latino,N/A,2024-12-20_19h06.22.130,dissOSARI,2023.2.3,Win32,59.52380952,,,,,,,,,,,,,,,,,,,,,,,,,,,,,,,,1775.4126,1776.3525,1776.3525,1777.353,,,,,,0,0.5,,,,,,,,,,,,,,,,,,,,,,,,,,,,,,,,,,,,,,,,,,,,,,,,,,,,,0,65,65,38,1,,,,,,,,,,,,,,,,,,
,,,,,,,,Harbor,3,Female,Hispanic/Latino,N/A,2024-12-20_19h06.22.130,dissOSARI,2023.2.3,Win32,59.52380952,,,,,,,,,,,,,,,,,,,,,,,,,,,,,,,,1777.3533,1778.5381,1778.5381,1779.5327,,,,,,1,0.5,,,,,,,,,,,,,,,,,,,,,,,,,,,,,,,,,,,,,,,,,,,,,,,,,,,,,0,66,66,64,1,,,,,,,,,,,,,,,,,,
,,,,,,,,Harbor,3,Female,Hispanic/Latino,N/A,2024-12-20_19h06.22.130,dissOSARI,2023.2.3,Win32,59.52380952,,,,,,,,,,,,,,,,,,,,,,,,,,,,,,,,1779.5328,1780.6723,1780.6723,1781.668,,,,,,0,0.5,,,,,,,,,,,,,,,,,,,,,,,,,,,,,,,,,,,,,,,,,,,,,,,,,,,,,0,67,67,52,1,,,,,,,,,,,,,,,,,,
,,,,,,,,Harbor,3,Female,Hispanic/Latino,N/A,2024-12-20_19h06.22.130,dissOSARI,2023.2.3,Win32,59.52380952,,,,,,,,,,,,,,,,,,,,,,,,,,,,,,,,1781.6681,1794.718,1794.718,1795.7175,,,,,,0,0.5,,,,,,,,,,,,,,,,,,,,,,,,,,,,,,,,,,,,,,,,,,,,,,,,,,,,,0,68,68,46,1,,,,,,,,,,,,,,,,,,
,,,,,,,,Harbor,3,Female,Hispanic/Latino,N/A,2024-12-20_19h06.22.130,dissOSARI,2023.2.3,Win32,59.52380952,,,,,,,,,,,,,,,,,,,,,,,,,,,,,,,,1795.7177,1797.6533,1797.6534,1798.6541,,,,,,0,0.5,,,,,,,,,,,,,,,,,,,,,,,,,,,,,,,,,,,,,,,,,,,,,,,,,,,,,0,69,69,19,1,,,,,,,,,,,,,,,,,,
,,,,,,,,Harbor,3,Female,Hispanic/Latino,N/A,2024-12-20_19h06.22.130,dissOSARI,2023.2.3,Win32,59.52380952,,,,,,,,,,,,,,,,,,,,,,,,,,,,,,,,1798.6542,1809.2471,1809.2471,1810.2429,,,,,,0,0.5,,,,,,,,,,,,,,,,,,,,,,,,,,,,,,,,,,,,,,,,,,,,,,,,,,,,,0,70,70,10,1,,,,,,,,,,,,,,,,,,
,,,,,,,,Harbor,3,Female,Hispanic/Latino,N/A,2024-12-20_19h06.22.130,dissOSARI,2023.2.3,Win32,59.52380952,,,,,,,,,,,,,,,,,,,,,,,,,,,,,,,,1810.2431,1811.6149,1811.6149,1812.6135,,,,,,1,0.5,,,,,,,,,,,,,,,,,,,,,,,,,,,,,,,,,,,,,,,,,,,,,,,,,,,,,0,71,71,77,1,,,,,,,,,,,,,,,,,,
,,,,,,,,Harbor,3,Female,Hispanic/Latino,N/A,2024-12-20_19h06.22.130,dissOSARI,2023.2.3,Win32,59.52380952,,,,,,,,,,,,,,,,,,,,,,,,,,,,,,,,1812.6137,1813.7174,1813.7174,1814.7115,,,,,,0,0.5,,,,,,,,,,,,,,,,,,,,,,,,,,,,,,,,,,,,,,,,,,,,,,,,,,,,,0,72,72,12,1,,,,,,,,,,,,,,,,,,
,,,,,,,,Harbor,3,Female,Hispanic/Latino,N/A,2024-12-20_19h06.22.130,dissOSARI,2023.2.3,Win32,59.52380952,,,,,,,,,,,,,,,,,,,,,,,,,,,,,,,,1814.7118,1815.7018,1815.7018,1816.702,,,,,,0,0.5,,,,,,,,,,,,,,,,,,,,,,,,,,,,,,,,,,,,,,,,,,,,,,,,,,,,,0,73,73,25,1,,,,,,,,,,,,,,,,,,
,,,,,,,,Harbor,3,Female,Hispanic/Latino,N/A,2024-12-20_19h06.22.130,dissOSARI,2023.2.3,Win32,59.52380952,,,,,,,,,,,,,,,,,,,,,,,,,,,,,,,,1816.7021,1817.5697,1817.5697,1818.5667,,,,,,0,0.5,,,,,,,,,,,,,,,,,,,,,,,,,,,,,,,,,,,,,,,,,,,,,,,,,,,,,0,74,74,30,1,,,,,,,,,,,,,,,,,,
,,,,,,,,Harbor,3,Female,Hispanic/Latino,N/A,2024-12-20_19h06.22.130,dissOSARI,2023.2.3,Win32,59.52380952,,,,,,,,,,,,,,,,,,,,,,,,,,,,,,,,1818.5673,1819.4212,1819.4212,1820.421,,,,,,1,0.5,,,,,,,,,,,,,,,,,,,,,,,,,,,,,,,,,,,,,,,,,,,,,,,,,,,,,0,75,75,76,1,,,,,,,,,,,,,,,,,,
,,,,,,,,Harbor,3,Female,Hispanic/Latino,N/A,2024-12-20_19h06.22.130,dissOSARI,2023.2.3,Win32,59.52380952,,,,,,,,,,,,,,,,,,,,,,,,,,,,,,,,1820.4213,1821.3565,1821.3565,1822.3572,,,,,,0,0.5,,,,,,,,,,,,,,,,,,,,,,,,,,,,,,,,,,,,,,,,,,,,,,,,,,,,,0,76,76,20,1,,,,,,,,,,,,,,,,,,
,,,,,,,,Harbor,3,Female,Hispanic/Latino,N/A,2024-12-20_19h06.22.130,dissOSARI,2023.2.3,Win32,59.52380952,,,,,,,,,,,,,,,,,,,,,,,,,,,,,,,,1822.3575,1823.3743,1823.3743,1824.3702,,,,,,1,0.5,,,,,,,,,,,,,,,,,,,,,,,,,,,,,,,,,,,,,,,,,,,,,,,,,,,,,0,77,77,75,1,,,,,,,,,,,,,,,,,,
,,,,,,,,Harbor,3,Female,Hispanic/Latino,N/A,2024-12-20_19h06.22.130,dissOSARI,2023.2.3,Win32,59.52380952,,,,,,,,,,,,,,,,,,,,,,,,,,,,,,,,1824.3707,1825.6938,1825.6938,1826.6883,,,,,,1,0.5,,,,,,,,,,,,,,,,,,,,,,,,,,,,,,,,,,,,,,,,,,,,,,,,,,,,,0,78,78,78,1,,,,,,,,,,,,,,,,,,
,,,,,,,,Harbor,3,Female,Hispanic/Latino,N/A,2024-12-20_19h06.22.130,dissOSARI,2023.2.3,Win32,59.52380952,,,,,,,,,,,,,,,,,,,,,,,,,,,,,,,,1826.6885,1827.7448,1827.7448,1828.7404,,,,,,0,0.5,,,,,,,,,,,,,,,,,,,,,,,,,,,,,,,,,,,,,,,,,,,,,,,,,,,,,0,79,79,15,1,,,,,,,,,,,,,,,,,,
,,,,,,,,Harbor,3,Female,Hispanic/Latino,N/A,2024-12-20_19h06.22.130,dissOSARI,2023.2.3,Win32,59.52380952,,,,,,,,,,,,,,,,,,,,,,,,,,,,,,,,1829.8661,1829.9482,1829.9482,1830.9469,,,,,,0,0.5,,,,,,,,,,,,,,,,,,,,,,,,,,,,,,,,,,,,,,,,,,,,,,,,,,,1828.7406,1829.8648,0,0,0,30,1,,,,,,,,,,,,,,,,,,
,,,,,,,,Harbor,3,Female,Hispanic/Latino,N/A,2024-12-20_19h06.22.130,dissOSARI,2023.2.3,Win32,59.52380952,,,,,,,,,,,,,,,,,,,,,,,,,,,,,,,,1830.9471,1832.1314,1832.1315,1833.1272,,,,,,0,0.5,,,,,,,,,,,,,,,,,,,,,,,,,,,,,,,,,,,,,,,,,,,,,,,,,,,,,0,1,1,32,1,,,,,,,,,,,,,,,,,,
,,,,,,,,Harbor,3,Female,Hispanic/Latino,N/A,2024-12-20_19h06.22.130,dissOSARI,2023.2.3,Win32,59.52380952,,,,,,,,,,,,,,,,,,,,,,,,,,,,,,,,1833.1275,1834.2341,1834.2341,1835.2289,,,,,,0,0.5,,,,,,,,,,,,,,,,,,,,,,,,,,,,,,,,,,,,,,,,,,,,,,,,,,,,,0,2,2,38,1,,,,,,,,,,,,,,,,,,
,,,,,,,,Harbor,3,Female,Hispanic/Latino,N/A,2024-12-20_19h06.22.130,dissOSARI,2023.2.3,Win32,59.52380952,,,,,,,,,,,,,,,,,,,,,,,,,,,,,,,,1835.229,1836.4692,1836.4693,1837.4654,,,,,,1,0.5,,,,,,,,,,,,,,,,,,,,,,,,,,,,,,,,,,,,,,,,,,,,,,,,,,,,,0,3,3,73,1,,,,,,,,,,,,,,,,,,
,,,,,,,,Harbor,3,Female,Hispanic/Latino,N/A,2024-12-20_19h06.22.130,dissOSARI,2023.2.3,Win32,59.52380952,,,,,,,,,,,,,,,,,,,,,,,,,,,,,,,,1837.4657,1838.5873,1838.5873,1839.5877,,,,,,0,0.5,,,,,,,,,,,,,,,,,,,,,,,,,,,,,,,,,,,,,,,,,,,,,,,,,,,,,0,4,4,21,1,,,,,,,,,,,,,,,,,,
,,,,,,,,Harbor,3,Female,Hispanic/Latino,N/A,2024-12-20_19h06.22.130,dissOSARI,2023.2.3,Win32,59.52380952,,,,,,,,,,,,,,,,,,,,,,,,,,,,,,,,1839.5878,1840.8218,1840.8218,1841.8185,,,,,,1,0.5,,,,,,,,,,,,,,,,,,,,,,,,,,,,,,,,,,,,,,,,,,,,,,,,,,,,,0,5,5,71,1,,,,,,,,,,,,,,,,,,
,,,,,,,,Harbor,3,Female,Hispanic/Latino,N/A,2024-12-20_19h06.22.130,dissOSARI,2023.2.3,Win32,59.52380952,,,,,,,,,,,,,,,,,,,,,,,,,,,,,,,,1841.8188,1842.9925,1842.9925,1843.9928,,,,,,1,0.5,,,,,,,,,,,,,,,,,,,,,,,,,,,,,,,,,,,,,,,,,,,,,,,,,,,,,0,6,6,65,1,,,,,,,,,,,,,,,,,,
,,,,,,,,Harbor,3,Female,Hispanic/Latino,N/A,2024-12-20_19h06.22.130,dissOSARI,2023.2.3,Win32,59.52380952,,,,,,,,,,,,,,,,,,,,,,,,,,,,,,,,1843.9931,1844.1416,1844.1416,1845.1435,,,,,,0,0.5,,,,,,,,,,,,,,,,,,,,,,,,,,,,,,,,,,,,,,,,,,,,,,,,,,,,,0,7,7,12,1,,,,,,,,,,,,,,,,,,
,,,,,,,,Harbor,3,Female,Hispanic/Latino,N/A,2024-12-20_19h06.22.130,dissOSARI,2023.2.3,Win32,59.52380952,,,,,,,,,,,,,,,,,,,,,,,,,,,,,,,,1845.1439,1846.0765,1846.0765,1847.0773,,,,,,0,0.5,,,,,,,,,,,,,,,,,,,,,,,,,,,,,,,,,,,,,,,,,,,,,,,,,,,,,0,8,8,36,1,,,,,,,,,,,,,,,,,,
,,,,,,,,Harbor,3,Female,Hispanic/Latino,N/A,2024-12-20_19h06.22.130,dissOSARI,2023.2.3,Win32,59.52380952,,,,,,,,,,,,,,,,,,,,,,,,,,,,,,,,1847.0775,1848.2629,1848.2629,1849.2629,,,,,,1,0.5,,,,,,,,,,,,,,,,,,,,,,,,,,,,,,,,,,,,,,,,,,,,,,,,,,,,,0,9,9,67,1,,,,,,,,,,,,,,,,,,
,,,,,,,,Harbor,3,Female,Hispanic/Latino,N/A,2024-12-20_19h06.22.130,dissOSARI,2023.2.3,Win32,59.52380952,,,,,,,,,,,,,,,,,,,,,,,,,,,,,,,,1849.2632,1850.4318,1850.4318,1851.427,,,,,,0,0.5,,,,,,,,,,,,,,,,,,,,,,,,,,,,,,,,,,,,,,,,,,,,,,,,,,,,,0,10,10,44,1,,,,,,,,,,,,,,,,,,
,,,,,,,,Harbor,3,Female,Hispanic/Latino,N/A,2024-12-20_19h06.22.130,dissOSARI,2023.2.3,Win32,59.52380952,,,,,,,,,,,,,,,,,,,,,,,,,,,,,,,,1851.4275,1852.2995,1852.2995,1853.3,,,,,,0,0.5,,,,,,,,,,,,,,,,,,,,,,,,,,,,,,,,,,,,,,,,,,,,,,,,,,,,,0,11,11,17,1,,,,,,,,,,,,,,,,,,
,,,,,,,,Harbor,3,Female,Hispanic/Latino,N/A,2024-12-20_19h06.22.130,dissOSARI,2023.2.3,Win32,59.52380952,,,,,,,,,,,,,,,,,,,,,,,,,,,,,,,,1853.3002,1854.2353,1854.2354,1855.2302,,,,,,0,0.5,,,,,,,,,,,,,,,,,,,,,,,,,,,,,,,,,,,,,,,,,,,,,,,,,,,,,0,12,12,31,1,,,,,,,,,,,,,,,,,,
,,,,,,,,Harbor,3,Female,Hispanic/Latino,N/A,2024-12-20_19h06.22.130,dissOSARI,2023.2.3,Win32,59.52380952,,,,,,,,,,,,,,,,,,,,,,,,,,,,,,,,1855.2306,1856.1372,1856.1373,1857.1372,,,,,,0,0.5,,,,,,,,,,,,,,,,,,,,,,,,,,,,,,,,,,,,,,,,,,,,,,,,,,,,,0,13,13,55,1,,,,,,,,,,,,,,,,,,
,,,,,,,,Harbor,3,Female,Hispanic/Latino,N/A,2024-12-20_19h06.22.130,dissOSARI,2023.2.3,Win32,59.52380952,,,,,,,,,,,,,,,,,,,,,,,,,,,,,,,,1857.1374,1858.3385,1858.3385,1859.3335,,,,,,1,0.5,,,,,,,,,,,,,,,,,,,,,,,,,,,,,,,,,,,,,,,,,,,,,,,,,,,,,0,14,14,68,1,,,,,,,,,,,,,,,,,,
,,,,,,,,Harbor,3,Female,Hispanic/Latino,N/A,2024-12-20_19h06.22.130,dissOSARI,2023.2.3,Win32,59.52380952,,,,,,,,,,,,,,,,,,,,,,,,,,,,,,,,1859.3337,1860.2393,1860.2393,1861.2346,,,,,,0,0.5,,,,,,,,,,,,,,,,,,,,,,,,,,,,,,,,,,,,,,,,,,,,,,,,,,,,,0,15,15,19,1,,,,,,,,,,,,,,,,,,
,,,,,,,,Harbor,3,Female,Hispanic/Latino,N/A,2024-12-20_19h06.22.130,dissOSARI,2023.2.3,Win32,59.52380952,,,,,,,,,,,,,,,,,,,,,,,,,,,,,,,,1861.2348,1862.2736,1862.2736,1863.2689,,,,,,0,0.5,,,,,,,,,,,,,,,,,,,,,,,,,,,,,,,,,,,,,,,,,,,,,,,,,,,,,0,16,16,3,1,,,,,,,,,,,,,,,,,,
,,,,,,,,Harbor,3,Female,Hispanic/Latino,N/A,2024-12-20_19h06.22.130,dissOSARI,2023.2.3,Win32,59.52380952,,,,,,,,,,,,,,,,,,,,,,,,,,,,,,,,1863.2691,1864.4424,1864.4424,1865.4436,,,,,,0,0.5,,,,,,,,,,,,,,,,,,,,,,,,,,,,,,,,,,,,,,,,,,,,,,,,,,,,,0,17,17,47,1,,,,,,,,,,,,,,,,,,
,,,,,,,,Harbor,3,Female,Hispanic/Latino,N/A,2024-12-20_19h06.22.130,dissOSARI,2023.2.3,Win32,59.52380952,,,,,,,,,,,,,,,,,,,,,,,,,,,,,,,,1865.4438,1866.21,1866.21,1867.2059,,,,,,0,0.5,,,,,,,,,,,,,,,,,,,,,,,,,,,,,,,,,,,,,,,,,,,,,,,,,,,,,0,18,18,23,1,,,,,,,,,,,,,,,,,,
,,,,,,,,Harbor,3,Female,Hispanic/Latino,N/A,2024-12-20_19h06.22.130,dissOSARI,2023.2.3,Win32,59.52380952,,,,,,,,,,,,,,,,,,,,,,,,,,,,,,,,1867.2064,1868.0623,1868.0623,1869.0578,,,,,,0,0.5,,,,,,,,,,,,,,,,,,,,,,,,,,,,,,,,,,,,,,,,,,,,,,,,,,,,,0,19,19,52,1,,,,,,,,,,,,,,,,,,
,,,,,,,,Harbor,3,Female,Hispanic/Latino,N/A,2024-12-20_19h06.22.130,dissOSARI,2023.2.3,Win32,59.52380952,,,,,,,,,,,,,,,,,,,,,,,,,,,,,,,,1869.058,1870.1489,1870.1489,1871.1428,,,,,,1,0.5,,,,,,,,,,,,,,,,,,,,,,,,,,,,,,,,,,,,,,,,,,,,,,,,,,,,,0,20,20,61,1,,,,,,,,,,,,,,,,,,
,,,,,,,,Harbor,3,Female,Hispanic/Latino,N/A,2024-12-20_19h06.22.130,dissOSARI,2023.2.3,Win32,59.52380952,,,,,,,,,,,,,,,,,,,,,,,,,,,,,,,,1871.1431,1872.1666,1872.1666,1873.1617,,,,,,0,0.5,,,,,,,,,,,,,,,,,,,,,,,,,,,,,,,,,,,,,,,,,,,,,,,,,,,,,0,21,21,18,1,,,,,,,,,,,,,,,,,,
,,,,,,,,Harbor,3,Female,Hispanic/Latino,N/A,2024-12-20_19h06.22.130,dissOSARI,2023.2.3,Win32,59.52380952,,,,,,,,,,,,,,,,,,,,,,,,,,,,,,,,1873.162,1874.2351,1874.2351,1875.2298,,,,,,0,0.5,,,,,,,,,,,,,,,,,,,,,,,,,,,,,,,,,,,,,,,,,,,,,,,,,,,,,0,22,22,11,1,,,,,,,,,,,,,,,,,,
,,,,,,,,Harbor,3,Female,Hispanic/Latino,N/A,2024-12-20_19h06.22.130,dissOSARI,2023.2.3,Win32,59.52380952,,,,,,,,,,,,,,,,,,,,,,,,,,,,,,,,1875.2304,1876.1534,1876.1534,1877.1482,,,,,,0,0.5,,,,,,,,,,,,,,,,,,,,,,,,,,,,,,,,,,,,,,,,,,,,,,,,,,,,,0,23,23,10,1,,,,,,,,,,,,,,,,,,
,,,,,,,,Harbor,3,Female,Hispanic/Latino,N/A,2024-12-20_19h06.22.130,dissOSARI,2023.2.3,Win32,59.52380952,,,,,,,,,,,,,,,,,,,,,,,,,,,,,,,,1877.1488,1878.1371,1878.1371,1879.1333,,,,,,0,0.5,,,,,,,,,,,,,,,,,,,,,,,,,,,,,,,,,,,,,,,,,,,,,,,,,,,,,0,24,24,26,1,,,,,,,,,,,,,,,,,,
,,,,,,,,Harbor,3,Female,Hispanic/Latino,N/A,2024-12-20_19h06.22.130,dissOSARI,2023.2.3,Win32,59.52380952,,,,,,,,,,,,,,,,,,,,,,,,,,,,,,,,1879.1338,1880.0388,1880.0388,1881.035,,,,,,0,0.5,,,,,,,,,,,,,,,,,,,,,,,,,,,,,,,,,,,,,,,,,,,,,,,,,,,,,0,25,25,42,1,,,,,,,,,,,,,,,,,,
,,,,,,,,Harbor,3,Female,Hispanic/Latino,N/A,2024-12-20_19h06.22.130,dissOSARI,2023.2.3,Win32,59.52380952,,,,,,,,,,,,,,,,,,,,,,,,,,,,,,,,1881.0355,1881.9509,1881.9509,1882.9526,,,,,,0,0.5,,,,,,,,,,,,,,,,,,,,,,,,,,,,,,,,,,,,,,,,,,,,,,,,,,,,,0,26,26,15,1,,,,,,,,,,,,,,,,,,
,,,,,,,,Harbor,3,Female,Hispanic/Latino,N/A,2024-12-20_19h06.22.130,dissOSARI,2023.2.3,Win32,59.52380952,,,,,,,,,,,,,,,,,,,,,,,,,,,,,,,,1882.9534,1883.7367,1883.7367,1884.7373,,,,,,0,0.5,,,,,,,,,,,,,,,,,,,,,,,,,,,,,,,,,,,,,,,,,,,,,,,,,,,,,0,27,27,41,1,,,,,,,,,,,,,,,,,,
,,,,,,,,Harbor,3,Female,Hispanic/Latino,N/A,2024-12-20_19h06.22.130,dissOSARI,2023.2.3,Win32,59.52380952,,,,,,,,,,,,,,,,,,,,,,,,,,,,,,,,1884.7376,1885.6877,1885.6878,1886.6889,,,,,,0,0.5,,,,,,,,,,,,,,,,,,,,,,,,,,,,,,,,,,,,,,,,,,,,,,,,,,,,,0,28,28,58,1,,,,,,,,,,,,,,,,,,
,,,,,,,,Harbor,3,Female,Hispanic/Latino,N/A,2024-12-20_19h06.22.130,dissOSARI,2023.2.3,Win32,59.52380952,,,,,,,,,,,,,,,,,,,,,,,,,,,,,,,,1886.6896,1887.8069,1887.8069,1888.8069,,,,,,1,0.5,,,,,,,,,,,,,,,,,,,,,,,,,,,,,,,,,,,,,,,,,,,,,,,,,,,,,0,29,29,62,1,,,,,,,,,,,,,,,,,,
,,,,,,,,Harbor,3,Female,Hispanic/Latino,N/A,2024-12-20_19h06.22.130,dissOSARI,2023.2.3,Win32,59.52380952,,,,,,,,,,,,,,,,,,,,,,,,,,,,,,,,1888.8074,1890.0255,1890.0256,1891.0265,,,,,,1,0.5,,,,,,,,,,,,,,,,,,,,,,,,,,,,,,,,,,,,,,,,,,,,,,,,,,,,,0,30,30,75,1,,,,,,,,,,,,,,,,,,
,,,,,,,,Harbor,3,Female,Hispanic/Latino,N/A,2024-12-20_19h06.22.130,dissOSARI,2023.2.3,Win32,59.52380952,,,,,,,,,,,,,,,,,,,,,,,,,,,,,,,,1891.0272,1891.8929,1891.8929,1892.8946,,,,,,0,0.5,,,,,,,,,,,,,,,,,,,,,,,,,,,,,,,,,,,,,,,,,,,,,,,,,,,,,0,31,31,46,1,,,,,,,,,,,,,,,,,,
,,,,,,,,Harbor,3,Female,Hispanic/Latino,N/A,2024-12-20_19h06.22.130,dissOSARI,2023.2.3,Win32,59.52380952,,,,,,,,,,,,,,,,,,,,,,,,,,,,,,,,1892.8951,1893.7446,1893.7446,1894.7463,,,,,,1,0.5,,,,,,,,,,,,,,,,,,,,,,,,,,,,,,,,,,,,,,,,,,,,,,,,,,,,,0,32,32,69,1,,,,,,,,,,,,,,,,,,
,,,,,,,,Harbor,3,Female,Hispanic/Latino,N/A,2024-12-20_19h06.22.130,dissOSARI,2023.2.3,Win32,59.52380952,,,,,,,,,,,,,,,,,,,,,,,,,,,,,,,,1894.747,1895.5626,1895.5627,1896.564,,,,,,0,0.5,,,,,,,,,,,,,,,,,,,,,,,,,,,,,,,,,,,,,,,,,,,,,,,,,,,,,0,33,33,22,1,,,,,,,,,,,,,,,,,,
,,,,,,,,Harbor,3,Female,Hispanic/Latino,N/A,2024-12-20_19h06.22.130,dissOSARI,2023.2.3,Win32,59.52380952,,,,,,,,,,,,,,,,,,,,,,,,,,,,,,,,1896.5646,1897.4814,1897.4814,1898.4828,,,,,,0,0.5,,,,,,,,,,,,,,,,,,,,,,,,,,,,,,,,,,,,,,,,,,,,,,,,,,,,,0,34,34,9,1,,,,,,,,,,,,,,,,,,
,,,,,,,,Harbor,3,Female,Hispanic/Latino,N/A,2024-12-20_19h06.22.130,dissOSARI,2023.2.3,Win32,59.52380952,,,,,,,,,,,,,,,,,,,,,,,,,,,,,,,,1898.4835,1899.7337,1899.7338,1900.7341,,,,,,1,0.5,,,,,,,,,,,,,,,,,,,,,,,,,,,,,,,,,,,,,,,,,,,,,,,,,,,,,0,35,35,79,1,,,,,,,,,,,,,,,,,,
,,,,,,,,Harbor,3,Female,Hispanic/Latino,N/A,2024-12-20_19h06.22.130,dissOSARI,2023.2.3,Win32,59.52380952,,,,,,,,,,,,,,,,,,,,,,,,,,,,,,,,1900.7348,1901.7516,1901.7516,1902.7528,,,,,,0,0.5,,,,,,,,,,,,,,,,,,,,,,,,,,,,,,,,,,,,,,,,,,,,,,,,,,,,,0,36,36,13,1,,,,,,,,,,,,,,,,,,
,,,,,,,,Harbor,3,Female,Hispanic/Latino,N/A,2024-12-20_19h06.22.130,dissOSARI,2023.2.3,Win32,59.52380952,,,,,,,,,,,,,,,,,,,,,,,,,,,,,,,,1902.7535,1904.0196,1904.0196,1905.0213,,,,,,0,0.5,,,,,,,,,,,,,,,,,,,,,,,,,,,,,,,,,,,,,,,,,,,,,,,,,,,,,0,37,37,34,1,,,,,,,,,,,,,,,,,,
,,,,,,,,Harbor,3,Female,Hispanic/Latino,N/A,2024-12-20_19h06.22.130,dissOSARI,2023.2.3,Win32,59.52380952,,,,,,,,,,,,,,,,,,,,,,,,,,,,,,,,1905.0219,1905.8547,1905.8547,1906.8564,,,,,,0,0.5,,,,,,,,,,,,,,,,,,,,,,,,,,,,,,,,,,,,,,,,,,,,,,,,,,,,,0,38,38,25,1,,,,,,,,,,,,,,,,,,
,,,,,,,,Harbor,3,Female,Hispanic/Latino,N/A,2024-12-20_19h06.22.130,dissOSARI,2023.2.3,Win32,59.52380952,,,,,,,,,,,,,,,,,,,,,,,,,,,,,,,,1906.8572,1907.7729,1907.7729,1908.774,,,,,,0,0.5,,,,,,,,,,,,,,,,,,,,,,,,,,,,,,,,,,,,,,,,,,,,,,,,,,,,,0,39,39,8,1,,,,,,,,,,,,,,,,,,
,,,,,,,,Harbor,3,Female,Hispanic/Latino,N/A,2024-12-20_19h06.22.130,dissOSARI,2023.2.3,Win32,59.52380952,,,,,,,,,,,,,,,,,,,,,,,,,,,,,,,,1908.7747,1909.8588,1909.8588,1910.8596,,,,,,0,0.5,,,,,,,,,,,,,,,,,,,,,,,,,,,,,,,,,,,,,,,,,,,,,,,,,,,,,0,40,40,53,1,,,,,,,,,,,,,,,,,,
,,,,,,,,Harbor,3,Female,Hispanic/Latino,N/A,2024-12-20_19h06.22.130,dissOSARI,2023.2.3,Win32,59.52380952,,,,,,,,,,,,,,,,,,,,,,,,,,,,,,,,1910.8603,1911.8106,1911.8106,1912.8113,,,,,,0,0.5,,,,,,,,,,,,,,,,,,,,,,,,,,,,,,,,,,,,,,,,,,,,,,,,,,,,,0,41,41,27,1,,,,,,,,,,,,,,,,,,
,,,,,,,,Harbor,3,Female,Hispanic/Latino,N/A,2024-12-20_19h06.22.130,dissOSARI,2023.2.3,Win32,59.52380952,,,,,,,,,,,,,,,,,,,,,,,,,,,,,,,,1912.8119,1914.129,1914.129,1915.1292,,,,,,1,0.5,,,,,,,,,,,,,,,,,,,,,,,,,,,,,,,,,,,,,,,,,,,,,,,,,,,,,0,42,42,76,1,,,,,,,,,,,,,,,,,,
,,,,,,,,Harbor,3,Female,Hispanic/Latino,N/A,2024-12-20_19h06.22.130,dissOSARI,2023.2.3,Win32,59.52380952,,,,,,,,,,,,,,,,,,,,,,,,,,,,,,,,1915.1297,1916.2297,1916.2297,1917.2316,,,,,,0,0.5,,,,,,,,,,,,,,,,,,,,,,,,,,,,,,,,,,,,,,,,,,,,,,,,,,,,,0,43,43,40,1,,,,,,,,,,,,,,,,,,
,,,,,,,,Harbor,3,Female,Hispanic/Latino,N/A,2024-12-20_19h06.22.130,dissOSARI,2023.2.3,Win32,59.52380952,,,,,,,,,,,,,,,,,,,,,,,,,,,,,,,,1917.2322,1918.0817,1918.0817,1919.083,,,,,,0,0.5,,,,,,,,,,,,,,,,,,,,,,,,,,,,,,,,,,,,,,,,,,,,,,,,,,,,,0,44,44,4,1,,,,,,,,,,,,,,,,,,
,,,,,,,,Harbor,3,Female,Hispanic/Latino,N/A,2024-12-20_19h06.22.130,dissOSARI,2023.2.3,Win32,59.52380952,,,,,,,,,,,,,,,,,,,,,,,,,,,,,,,,1919.0837,1920.1009,1920.1009,1921.1008,,,,,,1,0.5,,,,,,,,,,,,,,,,,,,,,,,,,,,,,,,,,,,,,,,,,,,,,,,,,,,,,0,45,45,74,1,,,,,,,,,,,,,,,,,,
,,,,,,,,Harbor,3,Female,Hispanic/Latino,N/A,2024-12-20_19h06.22.130,dissOSARI,2023.2.3,Win32,59.52380952,,,,,,,,,,,,,,,,,,,,,,,,,,,,,,,,1921.1014,1922.1348,1922.1348,1923.1352,,,,,,1,0.5,,,,,,,,,,,,,,,,,,,,,,,,,,,,,,,,,,,,,,,,,,,,,,,,,,,,,0,46,46,63,1,,,,,,,,,,,,,,,,,,
,,,,,,,,Harbor,3,Female,Hispanic/Latino,N/A,2024-12-20_19h06.22.130,dissOSARI,2023.2.3,Win32,59.52380952,,,,,,,,,,,,,,,,,,,,,,,,,,,,,,,,1923.1354,1924.1528,1924.1528,1925.1542,,,,,,0,0.5,,,,,,,,,,,,,,,,,,,,,,,,,,,,,,,,,,,,,,,,,,,,,,,,,,,,,0,47,47,37,1,,,,,,,,,,,,,,,,,,
,,,,,,,,Harbor,3,Female,Hispanic/Latino,N/A,2024-12-20_19h06.22.130,dissOSARI,2023.2.3,Win32,59.52380952,,,,,,,,,,,,,,,,,,,,,,,,,,,,,,,,1925.1548,1926.0714,1926.0714,1927.0729,,,,,,0,0.5,,,,,,,,,,,,,,,,,,,,,,,,,,,,,,,,,,,,,,,,,,,,,,,,,,,,,0,48,48,48,1,,,,,,,,,,,,,,,,,,
,,,,,,,,Harbor,3,Female,Hispanic/Latino,N/A,2024-12-20_19h06.22.130,dissOSARI,2023.2.3,Win32,59.52380952,,,,,,,,,,,,,,,,,,,,,,,,,,,,,,,,1927.0735,1927.9661,1927.9661,1928.9575,,,,,,0,0.5,,,,,,,,,,,,,,,,,,,,,,,,,,,,,,,,,,,,,,,,,,,,,,,,,,,,,0,49,49,59,1,,,,,,,,,,,,,,,,,,
,,,,,,,,Harbor,3,Female,Hispanic/Latino,N/A,2024-12-20_19h06.22.130,dissOSARI,2023.2.3,Win32,59.52380952,,,,,,,,,,,,,,,,,,,,,,,,,,,,,,,,1928.9585,1929.7579,1929.7579,1930.7589,,,,,,0,0.5,,,,,,,,,,,,,,,,,,,,,,,,,,,,,,,,,,,,,,,,,,,,,,,,,,,,,0,50,50,39,1,,,,,,,,,,,,,,,,,,
,,,,,,,,Harbor,3,Female,Hispanic/Latino,N/A,2024-12-20_19h06.22.130,dissOSARI,2023.2.3,Win32,59.52380952,,,,,,,,,,,,,,,,,,,,,,,,,,,,,,,,1930.7597,1931.7425,1931.7425,1932.7439,,,,,,1,0.5,,,,,,,,,,,,,,,,,,,,,,,,,,,,,,,,,,,,,,,,,,,,,,,,,,,,,0,51,51,77,1,,,,,,,,,,,,,,,,,,
,,,,,,,,Harbor,3,Female,Hispanic/Latino,N/A,2024-12-20_19h06.22.130,dissOSARI,2023.2.3,Win32,59.52380952,,,,,,,,,,,,,,,,,,,,,,,,,,,,,,,,1932.7445,1933.7109,1933.7109,1934.7126,,,,,,0,0.5,,,,,,,,,,,,,,,,,,,,,,,,,,,,,,,,,,,,,,,,,,,,,,,,,,,,,0,52,52,43,1,,,,,,,,,,,,,,,,,,
,,,,,,,,Harbor,3,Female,Hispanic/Latino,N/A,2024-12-20_19h06.22.130,dissOSARI,2023.2.3,Win32,59.52380952,,,,,,,,,,,,,,,,,,,,,,,,,,,,,,,,1934.7133,1935.78,1935.78,1936.7799,,,,,,0,0.5,,,,,,,,,,,,,,,,,,,,,,,,,,,,,,,,,,,,,,,,,,,,,,,,,,,,,0,53,53,51,1,,,,,,,,,,,,,,,,,,
,,,,,,,,Harbor,3,Female,Hispanic/Latino,N/A,2024-12-20_19h06.22.130,dissOSARI,2023.2.3,Win32,59.52380952,,,,,,,,,,,,,,,,,,,,,,,,,,,,,,,,1936.7807,1937.6977,1937.6977,1938.6987,,,,,,0,0.5,,,,,,,,,,,,,,,,,,,,,,,,,,,,,,,,,,,,,,,,,,,,,,,,,,,,,0,54,54,20,1,,,,,,,,,,,,,,,,,,
,,,,,,,,Harbor,3,Female,Hispanic/Latino,N/A,2024-12-20_19h06.22.130,dissOSARI,2023.2.3,Win32,59.52380952,,,,,,,,,,,,,,,,,,,,,,,,,,,,,,,,1938.6997,1939.9842,1939.9842,1940.984,,,,,,1,0.5,,,,,,,,,,,,,,,,,,,,,,,,,,,,,,,,,,,,,,,,,,,,,,,,,,,,,0,55,55,60,1,,,,,,,,,,,,,,,,,,
,,,,,,,,Harbor,3,Female,Hispanic/Latino,N/A,2024-12-20_19h06.22.130,dissOSARI,2023.2.3,Win32,59.52380952,,,,,,,,,,,,,,,,,,,,,,,,,,,,,,,,1940.9846,1941.8674,1941.8674,1942.8691,,,,,,0,0.5,,,,,,,,,,,,,,,,,,,,,,,,,,,,,,,,,,,,,,,,,,,,,,,,,,,,,0,56,56,35,1,,,,,,,,,,,,,,,,,,
,,,,,,,,Harbor,3,Female,Hispanic/Latino,N/A,2024-12-20_19h06.22.130,dissOSARI,2023.2.3,Win32,59.52380952,,,,,,,,,,,,,,,,,,,,,,,,,,,,,,,,1942.8697,1943.8037,1943.8037,1944.804,,,,,,0,0.5,,,,,,,,,,,,,,,,,,,,,,,,,,,,,,,,,,,,,,,,,,,,,,,,,,,,,0,57,57,24,1,,,,,,,,,,,,,,,,,,
,,,,,,,,Harbor,3,Female,Hispanic/Latino,N/A,2024-12-20_19h06.22.130,dissOSARI,2023.2.3,Win32,59.52380952,,,,,,,,,,,,,,,,,,,,,,,,,,,,,,,,1944.8047,1945.7715,1945.7715,1946.7721,,,,,,0,0.5,,,,,,,,,,,,,,,,,,,,,,,,,,,,,,,,,,,,,,,,,,,,,,,,,,,,,0,58,58,1,1,,,,,,,,,,,,,,,,,,
,,,,,,,,Harbor,3,Female,Hispanic/Latino,N/A,2024-12-20_19h06.22.130,dissOSARI,2023.2.3,Win32,59.52380952,,,,,,,,,,,,,,,,,,,,,,,,,,,,,,,,1946.7728,1947.6059,1947.6059,1948.6075,,,,,,0,0.5,,,,,,,,,,,,,,,,,,,,,,,,,,,,,,,,,,,,,,,,,,,,,,,,,,,,,0,59,59,6,1,,,,,,,,,,,,,,,,,,
,,,,,,,,Harbor,3,Female,Hispanic/Latino,N/A,2024-12-20_19h06.22.130,dissOSARI,2023.2.3,Win32,59.52380952,,,,,,,,,,,,,,,,,,,,,,,,,,,,,,,,1948.6082,1949.7568,1949.7568,1950.7587,,,,,,0,0.5,,,,,,,,,,,,,,,,,,,,,,,,,,,,,,,,,,,,,,,,,,,,,,,,,,,,,0,60,60,33,1,,,,,,,,,,,,,,,,,,
,,,,,,,,Harbor,3,Female,Hispanic/Latino,N/A,2024-12-20_19h06.22.130,dissOSARI,2023.2.3,Win32,59.52380952,,,,,,,,,,,,,,,,,,,,,,,,,,,,,,,,1950.7592,1951.6595,1951.6595,1952.6608,,,,,,0,0.5,,,,,,,,,,,,,,,,,,,,,,,,,,,,,,,,,,,,,,,,,,,,,,,,,,,,,0,61,61,0,1,,,,,,,,,,,,,,,,,,
,,,,,,,,Harbor,3,Female,Hispanic/Latino,N/A,2024-12-20_19h06.22.130,dissOSARI,2023.2.3,Win32,59.52380952,,,,,,,,,,,,,,,,,,,,,,,,,,,,,,,,1952.6613,1953.6778,1953.6778,1954.6791,,,,,,0,0.5,,,,,,,,,,,,,,,,,,,,,,,,,,,,,,,,,,,,,,,,,,,,,,,,,,,,,0,62,62,7,1,,,,,,,,,,,,,,,,,,
,,,,,,,,Harbor,3,Female,Hispanic/Latino,N/A,2024-12-20_19h06.22.130,dissOSARI,2023.2.3,Win32,59.52380952,,,,,,,,,,,,,,,,,,,,,,,,,,,,,,,,1954.6797,1955.7634,1955.7635,1956.7637,,,,,,0,0.5,,,,,,,,,,,,,,,,,,,,,,,,,,,,,,,,,,,,,,,,,,,,,,,,,,,,,0,63,63,16,1,,,,,,,,,,,,,,,,,,
,,,,,,,,Harbor,3,Female,Hispanic/Latino,N/A,2024-12-20_19h06.22.130,dissOSARI,2023.2.3,Win32,59.52380952,,,,,,,,,,,,,,,,,,,,,,,,,,,,,,,,1956.7643,1957.8156,1957.8156,1958.8159,,,,,,1,0.5,,,,,,,,,,,,,,,,,,,,,,,,,,,,,,,,,,,,,,,,,,,,,,,,,,,,,0,64,64,72,1,,,,,,,,,,,,,,,,,,
,,,,,,,,Harbor,3,Female,Hispanic/Latino,N/A,2024-12-20_19h06.22.130,dissOSARI,2023.2.3,Win32,59.52380952,,,,,,,,,,,,,,,,,,,,,,,,,,,,,,,,1958.8166,1959.9822,1959.9822,1960.9837,,,,,,1,0.5,,,,,,,,,,,,,,,,,,,,,,,,,,,,,,,,,,,,,,,,,,,,,,,,,,,,,0,65,65,64,1,,,,,,,,,,,,,,,,,,
,,,,,,,,Harbor,3,Female,Hispanic/Latino,N/A,2024-12-20_19h06.22.130,dissOSARI,2023.2.3,Win32,59.52380952,,,,,,,,,,,,,,,,,,,,,,,,,,,,,,,,1960.9846,1961.8514,1961.8514,1962.8521,,,,,,0,0.5,,,,,,,,,,,,,,,,,,,,,,,,,,,,,,,,,,,,,,,,,,,,,,,,,,,,,0,66,66,29,1,,,,,,,,,,,,,,,,,,
,,,,,,,,Harbor,3,Female,Hispanic/Latino,N/A,2024-12-20_19h06.22.130,dissOSARI,2023.2.3,Win32,59.52380952,,,,,,,,,,,,,,,,,,,,,,,,,,,,,,,,1962.8527,1963.6198,1963.6198,1964.6207,,,,,,0,0.5,,,,,,,,,,,,,,,,,,,,,,,,,,,,,,,,,,,,,,,,,,,,,,,,,,,,,0,67,67,50,1,,,,,,,,,,,,,,,,,,
,,,,,,,,Harbor,3,Female,Hispanic/Latino,N/A,2024-12-20_19h06.22.130,dissOSARI,2023.2.3,Win32,59.52380952,,,,,,,,,,,,,,,,,,,,,,,,,,,,,,,,1964.6214,1965.4365,1965.4365,1966.4389,,,,,,0,0.5,,,,,,,,,,,,,,,,,,,,,,,,,,,,,,,,,,,,,,,,,,,,,,,,,,,,,0,68,68,14,1,,,,,,,,,,,,,,,,,,
,,,,,,,,Harbor,3,Female,Hispanic/Latino,N/A,2024-12-20_19h06.22.130,dissOSARI,2023.2.3,Win32,59.52380952,,,,,,,,,,,,,,,,,,,,,,,,,,,,,,,,1966.4396,1967.3887,1967.3887,1968.3905,,,,,,0,0.5,,,,,,,,,,,,,,,,,,,,,,,,,,,,,,,,,,,,,,,,,,,,,,,,,,,,,0,69,69,57,1,,,,,,,,,,,,,,,,,,
,,,,,,,,Harbor,3,Female,Hispanic/Latino,N/A,2024-12-20_19h06.22.130,dissOSARI,2023.2.3,Win32,59.52380952,,,,,,,,,,,,,,,,,,,,,,,,,,,,,,,,1968.3911,1969.2904,1969.2904,1970.292,,,,,,0,0.5,,,,,,,,,,,,,,,,,,,,,,,,,,,,,,,,,,,,,,,,,,,,,,,,,,,,,0,70,70,5,1,,,,,,,,,,,,,,,,,,
,,,,,,,,Harbor,3,Female,Hispanic/Latino,N/A,2024-12-20_19h06.22.130,dissOSARI,2023.2.3,Win32,59.52380952,,,,,,,,,,,,,,,,,,,,,,,,,,,,,,,,1970.2926,1971.3586,1971.3586,1972.3602,,,,,,0,0.5,,,,,,,,,,,,,,,,,,,,,,,,,,,,,,,,,,,,,,,,,,,,,,,,,,,,,0,71,71,28,1,,,,,,,,,,,,,,,,,,
,,,,,,,,Harbor,3,Female,Hispanic/Latino,N/A,2024-12-20_19h06.22.130,dissOSARI,2023.2.3,Win32,59.52380952,,,,,,,,,,,,,,,,,,,,,,,,,,,,,,,,1972.3606,1973.2602,1973.2602,1974.2621,,,,,,0,0.5,,,,,,,,,,,,,,,,,,,,,,,,,,,,,,,,,,,,,,,,,,,,,,,,,,,,,0,72,72,49,1,,,,,,,,,,,,,,,,,,
,,,,,,,,Harbor,3,Female,Hispanic/Latino,N/A,2024-12-20_19h06.22.130,dissOSARI,2023.2.3,Win32,59.52380952,,,,,,,,,,,,,,,,,,,,,,,,,,,,,,,,1974.2629,1975.4634,1975.4634,1976.4633,,,,,,1,0.5,,,,,,,,,,,,,,,,,,,,,,,,,,,,,,,,,,,,,,,,,,,,,,,,,,,,,0,73,73,66,1,,,,,,,,,,,,,,,,,,
,,,,,,,,Harbor,3,Female,Hispanic/Latino,N/A,2024-12-20_19h06.22.130,dissOSARI,2023.2.3,Win32,59.52380952,,,,,,,,,,,,,,,,,,,,,,,,,,,,,,,,1976.464,1977.3633,1977.3633,1978.3653,,,,,,0,0.5,,,,,,,,,,,,,,,,,,,,,,,,,,,,,,,,,,,,,,,,,,,,,,,,,,,,,0,74,74,2,1,,,,,,,,,,,,,,,,,,
,,,,,,,,Harbor,3,Female,Hispanic/Latino,N/A,2024-12-20_19h06.22.130,dissOSARI,2023.2.3,Win32,59.52380952,,,,,,,,,,,,,,,,,,,,,,,,,,,,,,,,1978.3661,1979.1986,1979.1986,1980.1991,,,,,,0,0.5,,,,,,,,,,,,,,,,,,,,,,,,,,,,,,,,,,,,,,,,,,,,,,,,,,,,,0,75,75,45,1,,,,,,,,,,,,,,,,,,
,,,,,,,,Harbor,3,Female,Hispanic/Latino,N/A,2024-12-20_19h06.22.130,dissOSARI,2023.2.3,Win32,59.52380952,,,,,,,,,,,,,,,,,,,,,,,,,,,,,,,,1980.1993,1981.133,1981.133,1982.1342,,,,,,0,0.5,,,,,,,,,,,,,,,,,,,,,,,,,,,,,,,,,,,,,,,,,,,,,,,,,,,,,0,76,76,56,1,,,,,,,,,,,,,,,,,,
,,,,,,,,Harbor,3,Female,Hispanic/Latino,N/A,2024-12-20_19h06.22.130,dissOSARI,2023.2.3,Win32,59.52380952,,,,,,,,,,,,,,,,,,,,,,,,,,,,,,,,1982.1344,1983.0683,1983.0683,1984.0696,,,,,,0,0.5,,,,,,,,,,,,,,,,,,,,,,,,,,,,,,,,,,,,,,,,,,,,,,,,,,,,,0,77,77,54,1,,,,,,,,,,,,,,,,,,
,,,,,,,,Harbor,3,Female,Hispanic/Latino,N/A,2024-12-20_19h06.22.130,dissOSARI,2023.2.3,Win32,59.52380952,,,,,,,,,,,,,,,,,,,,,,,,,,,,,,,,1984.0703,1985.0038,1985.0038,1986.0044,,,,,,1,0.5,,,,,,,,,,,,,,,,,,,,,,,,,,,,,,,,,,,,,,,,,,,,,,,,,,,,,0,78,78,70,1,,,,,,,,,,,,,,,,,,
,,,,,,,,Harbor,3,Female,Hispanic/Latino,N/A,2024-12-20_19h06.22.130,dissOSARI,2023.2.3,Win32,59.52380952,,,,,,,,,,,,,,,,,,,,,,,,,,,,,,,,1986.005,1987.0223,1987.0224,1988.0235,,,,,,1,0.5,,,,,,,,,,,,,,,,,,,,,,,,,,,,,,,,,,,,,,,,,,,,,,,,,,,,,0,79,79,78,1,,,,,,,,,,,,,,,,,,
,,,,,,,,Harbor,3,Female,Hispanic/Latino,N/A,2024-12-20_19h06.22.130,dissOSARI,2023.2.3,Win32,59.52380952,,,,,,,,,,,,,,,,,,,,,,,,,,,,,,,,,,,,,,,,,,,,,,,,,,,,,,,,,,,,,,,,,,,,,,,,,,,,,,,,,,,,,,,,,,,,,,,,,,,,1988.0246,1998.5037,3,0.111022998,-0.111419508,1,0,0,1.8505,EndFatigue,,,,,,,,
,,,,,,,,Harbor,3,Female,Hispanic/Latino,N/A,2024-12-20_19h06.22.130,dissOSARI,2023.2.3,Win32,59.52380952,,,,,,,,,,,,,,,,,,,,,,,,,,,,,,,,,,,,,,,,,,,,,,,,,,,,,,,,,,,,,,,,,,,,,,,,,,,,,,,,,,,,,,,,,,,,,,,,,,,,,,,,,,,,,,1998.5037,1999.3317,-0.003965107,-0.202616971,1,0,0,0.8269