welcome.started,welcome.stopped,WelcomeClick.x,WelcomeClick.y,WelcomeClick.leftButton,WelcomeClick.midButton,WelcomeClick.rightButton,WelcomeClick.time,participant,week,gender,race/ ethnicity,cognitive health history,date,expName,psychopyVersion,OS,frameRate,intro.started,intro.stopped,readyClick.x,readyClick.y,readyClick.leftButton,readyClick.midButton,readyClick.rightButton,practGoInst.started,practGoInst.stopped,PractGoClick.x,PractGoClick.y,PractGoClick.leftButton,PractGoClick.midButton,PractGoClick.rightButton,PractGoClick.time,practGoInst2.started,practGoInst2.stopped,PractGo2Click.x,PractGo2Click.y,PractGo2Click.leftButton,PractGo2Click.midButton,PractGo2Click.rightButton,PractGo2Click.time,practGoInst3.started,practGoInst3.stopped,PractGo3Click.x,PractGo3Click.y,PractGo3Click.leftButton,PractGo3Click.midButton,PractGo3Click.rightButton,PractGo3Click.time,trial.started,trial.stopped,feedback.started,feedback.stopped,practGo.thisRepN,practGo.thisTrialN,practGo.thisN,practGo.thisIndex,practGo.ran,Signal,fixedStopTime,testGoInst.started,testGoInst.stopped,GoTestClick.x,GoTestClick.y,GoTestClick.leftButton,GoTestClick.midButton,GoTestClick.rightButton,GoTestClick.time,TestGo.thisRepN,TestGo.thisTrialN,TestGo.thisN,TestGo.thisIndex,TestGo.ran,mixPractIntro.started,mixPractIntro.stopped,MixIntroClick.x,MixIntroClick.y,MixIntroClick.leftButton,MixIntroClick.midButton,MixIntroClick.rightButton,MixIntroClick.time,mixPractInst.started,mixPractInst.stopped,StopInstClick.x,StopInstClick.y,StopInstClick.leftButton,StopInstClick.midButton,StopInstClick.rightButton,StopInstClick.time,mixPractInst2.started,mixPractInst2.stopped,PractStop2Click.x,PractStop2Click.y,PractStop2Click.leftButton,PractStop2Click.midButton,PractStop2Click.rightButton,PractStop2Click.time,mixPractInst3.started,mixPractInst3.stopped,PractStop3Click.x,PractStop3Click.y,PractStop3Click.leftButton,PractStop3Click.midButton,PractStop3Click.rightButton,PractStop3Click.time,mixPract.thisRepN,mixPract.thisTrialN,mixPract.thisN,mixPract.thisIndex,mixPract.ran,breakResetTrial.started,breakResetTrial.stopped,trials.thisRepN,trials.thisTrialN,trials.thisN,trials.thisIndex,trials.ran,MentalFatigue.started,MentalFatigue.stopped,textbox.text,EndClick.x,EndClick.y,EndClick.leftButton,EndClick.midButton,EndClick.rightButton,EndClick.time,EndClick.clicked_name,end.started,end.stopped,mouse_2.x,mouse_2.y,mouse_2.leftButton,mouse_2.midButton,mouse_2.rightButton,mouse_2.time
0.0005,3.0387,0.074638233,-0.109291698,1,0,0,2.786,Cascade,2,Female,Hispanic/Latino,NA,2024-12-12_13h18.10.435,dissOSARI,2023.2.3,Win32,60.97560976,,,,,,,,,,,,,,,,,,,,,,,,,,,,,,,,,,,,,,,,,,,,,,,,,,,,,,,,,,,,,,,,,,,,,,,,,,,,,,,,,,,,,,,,,,,,,,,,,,,,,,,,,,,,,,,,,,,,,
,,,,,,,,Cascade,2,Female,Hispanic/Latino,NA,2024-12-12_13h18.10.435,dissOSARI,2023.2.3,Win32,60.97560976,3.0389,4.1228,0.024371668,-0.07501904,1,0,0,,,,,,,,,,,,,,,,,,,,,,,,,,,,,,,,,,,,,,,,,,,,,,,,,,,,,,,,,,,,,,,,,,,,,,,,,,,,,,,,,,,,,,,,,,,,,,,,,,,,,,,,,,,,,,
,,,,,,,,Cascade,2,Female,Hispanic/Latino,NA,2024-12-12_13h18.10.435,dissOSARI,2023.2.3,Win32,60.97560976,,,,,,,,4.1232,4.9566,0.008377761,-0.068164509,1,0,0,0.5671,,,,,,,,,,,,,,,,,,,,,,,,,,,,,,,,,,,,,,,,,,,,,,,,,,,,,,,,,,,,,,,,,,,,,,,,,,,,,,,,,,,,,,,,,,,,,,,,,,,,,,
,,,,,,,,Cascade,2,Female,Hispanic/Latino,NA,2024-12-12_13h18.10.435,dissOSARI,2023.2.3,Win32,60.97560976,,,,,,,,,,,,,,,,4.9568,7.0919,0.008377761,-0.068164509,1,0,0,1.8847,,,,,,,,,,,,,,,,,,,,,,,,,,,,,,,,,,,,,,,,,,,,,,,,,,,,,,,,,,,,,,,,,,,,,,,,,,,,,,,,,,,,,,,,,,,,,,
,,,,,,,,Cascade,2,Female,Hispanic/Latino,NA,2024-12-12_13h18.10.435,dissOSARI,2023.2.3,Win32,60.97560976,,,,,,,,,,,,,,,,,,,,,,,,7.0919,7.8761,0.191926885,-0.169459254,1,0,0,0.5169,,,,,,,,,,,,,,,,,,,,,,,,,,,,,,,,,,,,,,,,,,,,,,,,,,,,,,,,,,,,,,,,,,,,,,,,,,,,,,,,,,,,,,
,,,,,,,,Cascade,2,Female,Hispanic/Latino,NA,2024-12-12_13h18.10.435,dissOSARI,2023.2.3,Win32,60.97560976,,,,,,,,,,,,,,,,,,,,,,,,,,,,,,,,7.8798,9.4613,9.4615,10.4617,0,0,0,3,1,0,0.5,,,,,,,,,,,,,,,,,,,,,,,,,,,,,,,,,,,,,,,,,,,,,,,,,,,,,,,,,,,,,,,,,,,,,,,,,,,
,,,,,,,,Cascade,2,Female,Hispanic/Latino,NA,2024-12-12_13h18.10.435,dissOSARI,2023.2.3,Win32,60.97560976,,,,,,,,,,,,,,,,,,,,,,,,,,,,,,,,10.4623,11.5627,11.5628,12.5622,0,1,1,1,1,0,0.5,,,,,,,,,,,,,,,,,,,,,,,,,,,,,,,,,,,,,,,,,,,,,,,,,,,,,,,,,,,,,,,,,,,,,,,,,,,
,,,,,,,,Cascade,2,Female,Hispanic/Latino,NA,2024-12-12_13h18.10.435,dissOSARI,2023.2.3,Win32,60.97560976,,,,,,,,,,,,,,,,,,,,,,,,,,,,,,,,12.5625,13.748,13.748,14.7481,0,2,2,0,1,0,0.5,,,,,,,,,,,,,,,,,,,,,,,,,,,,,,,,,,,,,,,,,,,,,,,,,,,,,,,,,,,,,,,,,,,,,,,,,,,
,,,,,,,,Cascade,2,Female,Hispanic/Latino,NA,2024-12-12_13h18.10.435,dissOSARI,2023.2.3,Win32,60.97560976,,,,,,,,,,,,,,,,,,,,,,,,,,,,,,,,14.7485,15.8165,15.8165,16.8164,0,3,3,4,1,0,0.5,,,,,,,,,,,,,,,,,,,,,,,,,,,,,,,,,,,,,,,,,,,,,,,,,,,,,,,,,,,,,,,,,,,,,,,,,,,
,,,,,,,,Cascade,2,Female,Hispanic/Latino,NA,2024-12-12_13h18.10.435,dissOSARI,2023.2.3,Win32,60.97560976,,,,,,,,,,,,,,,,,,,,,,,,,,,,,,,,16.817,17.668,17.668,18.668,0,4,4,2,1,0,0.5,,,,,,,,,,,,,,,,,,,,,,,,,,,,,,,,,,,,,,,,,,,,,,,,,,,,,,,,,,,,,,,,,,,,,,,,,,,
,,,,,,,,Cascade,2,Female,Hispanic/Latino,NA,2024-12-12_13h18.10.435,dissOSARI,2023.2.3,Win32,60.97560976,,,,,,,,,,,,,,,,,,,,,,,,,,,,,,,,,,,,,,,,,,,18.6683,19.969,0.369383092,-0.37966489,1,0,0,0.5501,,,,,,,,,,,,,,,,,,,,,,,,,,,,,,,,,,,,,,,,,,,,,,,,,,,,,,,,,,,,,,,,,,,
,,,,,,,,Cascade,2,Female,Hispanic/Latino,NA,2024-12-12_13h18.10.435,dissOSARI,2023.2.3,Win32,60.97560976,,,,,,,,,,,,,,,,,,,,,,,,,,,,,,,,19.9705,20.0695,20.0695,21.07,,,,,,0,0.5,,,,,,,,,0,0,0,14,1,,,,,,,,,,,,,,,,,,,,,,,,,,,,,,,,,,,,,,,,,,,,,,,,,,,,,,,,,,,,,,
,,,,,,,,Cascade,2,Female,Hispanic/Latino,NA,2024-12-12_13h18.10.435,dissOSARI,2023.2.3,Win32,60.97560976,,,,,,,,,,,,,,,,,,,,,,,,,,,,,,,,21.0704,22.2214,22.2215,23.2217,,,,,,0,0.5,,,,,,,,,0,1,1,31,1,,,,,,,,,,,,,,,,,,,,,,,,,,,,,,,,,,,,,,,,,,,,,,,,,,,,,,,,,,,,,,
,,,,,,,,Cascade,2,Female,Hispanic/Latino,NA,2024-12-12_13h18.10.435,dissOSARI,2023.2.3,Win32,60.97560976,,,,,,,,,,,,,,,,,,,,,,,,,,,,,,,,23.2222,24.1897,24.1897,25.1903,,,,,,0,0.5,,,,,,,,,0,2,2,28,1,,,,,,,,,,,,,,,,,,,,,,,,,,,,,,,,,,,,,,,,,,,,,,,,,,,,,,,,,,,,,,
,,,,,,,,Cascade,2,Female,Hispanic/Latino,NA,2024-12-12_13h18.10.435,dissOSARI,2023.2.3,Win32,60.97560976,,,,,,,,,,,,,,,,,,,,,,,,,,,,,,,,25.1907,26.2083,26.2083,27.2082,,,,,,0,0.5,,,,,,,,,0,3,3,21,1,,,,,,,,,,,,,,,,,,,,,,,,,,,,,,,,,,,,,,,,,,,,,,,,,,,,,,,,,,,,,,
,,,,,,,,Cascade,2,Female,Hispanic/Latino,NA,2024-12-12_13h18.10.435,dissOSARI,2023.2.3,Win32,60.97560976,,,,,,,,,,,,,,,,,,,,,,,,,,,,,,,,27.2086,28.2596,28.2596,29.2599,,,,,,0,0.5,,,,,,,,,0,4,4,15,1,,,,,,,,,,,,,,,,,,,,,,,,,,,,,,,,,,,,,,,,,,,,,,,,,,,,,,,,,,,,,,
,,,,,,,,Cascade,2,Female,Hispanic/Latino,NA,2024-12-12_13h18.10.435,dissOSARI,2023.2.3,Win32,60.97560976,,,,,,,,,,,,,,,,,,,,,,,,,,,,,,,,29.2602,30.3284,30.3284,31.3286,,,,,,0,0.5,,,,,,,,,0,5,5,38,1,,,,,,,,,,,,,,,,,,,,,,,,,,,,,,,,,,,,,,,,,,,,,,,,,,,,,,,,,,,,,,
,,,,,,,,Cascade,2,Female,Hispanic/Latino,NA,2024-12-12_13h18.10.435,dissOSARI,2023.2.3,Win32,60.97560976,,,,,,,,,,,,,,,,,,,,,,,,,,,,,,,,31.3289,32.2631,32.2632,33.2633,,,,,,0,0.5,,,,,,,,,0,6,6,48,1,,,,,,,,,,,,,,,,,,,,,,,,,,,,,,,,,,,,,,,,,,,,,,,,,,,,,,,,,,,,,,
,,,,,,,,Cascade,2,Female,Hispanic/Latino,NA,2024-12-12_13h18.10.435,dissOSARI,2023.2.3,Win32,60.97560976,,,,,,,,,,,,,,,,,,,,,,,,,,,,,,,,33.2639,34.3146,34.3147,35.3154,,,,,,0,0.5,,,,,,,,,0,7,7,35,1,,,,,,,,,,,,,,,,,,,,,,,,,,,,,,,,,,,,,,,,,,,,,,,,,,,,,,,,,,,,,,
,,,,,,,,Cascade,2,Female,Hispanic/Latino,NA,2024-12-12_13h18.10.435,dissOSARI,2023.2.3,Win32,60.97560976,,,,,,,,,,,,,,,,,,,,,,,,,,,,,,,,35.3158,36.3669,36.3669,37.367,,,,,,0,0.5,,,,,,,,,0,8,8,2,1,,,,,,,,,,,,,,,,,,,,,,,,,,,,,,,,,,,,,,,,,,,,,,,,,,,,,,,,,,,,,,
,,,,,,,,Cascade,2,Female,Hispanic/Latino,NA,2024-12-12_13h18.10.435,dissOSARI,2023.2.3,Win32,60.97560976,,,,,,,,,,,,,,,,,,,,,,,,,,,,,,,,37.3671,38.5018,38.5018,39.5017,,,,,,0,0.5,,,,,,,,,0,9,9,10,1,,,,,,,,,,,,,,,,,,,,,,,,,,,,,,,,,,,,,,,,,,,,,,,,,,,,,,,,,,,,,,
,,,,,,,,Cascade,2,Female,Hispanic/Latino,NA,2024-12-12_13h18.10.435,dissOSARI,2023.2.3,Win32,60.97560976,,,,,,,,,,,,,,,,,,,,,,,,,,,,,,,,39.5023,40.4702,40.4702,41.4702,,,,,,0,0.5,,,,,,,,,0,10,10,27,1,,,,,,,,,,,,,,,,,,,,,,,,,,,,,,,,,,,,,,,,,,,,,,,,,,,,,,,,,,,,,,
,,,,,,,,Cascade,2,Female,Hispanic/Latino,NA,2024-12-12_13h18.10.435,dissOSARI,2023.2.3,Win32,60.97560976,,,,,,,,,,,,,,,,,,,,,,,,,,,,,,,,41.4706,42.4041,42.4042,43.4051,,,,,,0,0.5,,,,,,,,,0,11,11,11,1,,,,,,,,,,,,,,,,,,,,,,,,,,,,,,,,,,,,,,,,,,,,,,,,,,,,,,,,,,,,,,
,,,,,,,,Cascade,2,Female,Hispanic/Latino,NA,2024-12-12_13h18.10.435,dissOSARI,2023.2.3,Win32,60.97560976,,,,,,,,,,,,,,,,,,,,,,,,,,,,,,,,43.4055,44.3066,44.3066,45.3067,,,,,,0,0.5,,,,,,,,,0,12,12,7,1,,,,,,,,,,,,,,,,,,,,,,,,,,,,,,,,,,,,,,,,,,,,,,,,,,,,,,,,,,,,,,
,,,,,,,,Cascade,2,Female,Hispanic/Latino,NA,2024-12-12_13h18.10.435,dissOSARI,2023.2.3,Win32,60.97560976,,,,,,,,,,,,,,,,,,,,,,,,,,,,,,,,45.307,46.3249,46.3249,47.3247,,,,,,0,0.5,,,,,,,,,0,13,13,13,1,,,,,,,,,,,,,,,,,,,,,,,,,,,,,,,,,,,,,,,,,,,,,,,,,,,,,,,,,,,,,,
,,,,,,,,Cascade,2,Female,Hispanic/Latino,NA,2024-12-12_13h18.10.435,dissOSARI,2023.2.3,Win32,60.97560976,,,,,,,,,,,,,,,,,,,,,,,,,,,,,,,,47.325,48.2928,48.2928,49.293,,,,,,0,0.5,,,,,,,,,0,14,14,37,1,,,,,,,,,,,,,,,,,,,,,,,,,,,,,,,,,,,,,,,,,,,,,,,,,,,,,,,,,,,,,,
,,,,,,,,Cascade,2,Female,Hispanic/Latino,NA,2024-12-12_13h18.10.435,dissOSARI,2023.2.3,Win32,60.97560976,,,,,,,,,,,,,,,,,,,,,,,,,,,,,,,,49.2935,50.1779,50.178,51.1785,,,,,,0,0.5,,,,,,,,,0,15,15,1,1,,,,,,,,,,,,,,,,,,,,,,,,,,,,,,,,,,,,,,,,,,,,,,,,,,,,,,,,,,,,,,
,,,,,,,,Cascade,2,Female,Hispanic/Latino,NA,2024-12-12_13h18.10.435,dissOSARI,2023.2.3,Win32,60.97560976,,,,,,,,,,,,,,,,,,,,,,,,,,,,,,,,51.1792,52.113,52.113,53.1129,,,,,,0,0.5,,,,,,,,,0,16,16,36,1,,,,,,,,,,,,,,,,,,,,,,,,,,,,,,,,,,,,,,,,,,,,,,,,,,,,,,,,,,,,,,
,,,,,,,,Cascade,2,Female,Hispanic/Latino,NA,2024-12-12_13h18.10.435,dissOSARI,2023.2.3,Win32,60.97560976,,,,,,,,,,,,,,,,,,,,,,,,,,,,,,,,53.1134,53.881,53.881,54.8811,,,,,,0,0.5,,,,,,,,,0,17,17,24,1,,,,,,,,,,,,,,,,,,,,,,,,,,,,,,,,,,,,,,,,,,,,,,,,,,,,,,,,,,,,,,
,,,,,,,,Cascade,2,Female,Hispanic/Latino,NA,2024-12-12_13h18.10.435,dissOSARI,2023.2.3,Win32,60.97560976,,,,,,,,,,,,,,,,,,,,,,,,,,,,,,,,54.8815,55.7161,55.7162,56.7159,,,,,,0,0.5,,,,,,,,,0,18,18,42,1,,,,,,,,,,,,,,,,,,,,,,,,,,,,,,,,,,,,,,,,,,,,,,,,,,,,,,,,,,,,,,
,,,,,,,,Cascade,2,Female,Hispanic/Latino,NA,2024-12-12_13h18.10.435,dissOSARI,2023.2.3,Win32,60.97560976,,,,,,,,,,,,,,,,,,,,,,,,,,,,,,,,56.7163,57.6506,57.6506,58.6509,,,,,,0,0.5,,,,,,,,,0,19,19,44,1,,,,,,,,,,,,,,,,,,,,,,,,,,,,,,,,,,,,,,,,,,,,,,,,,,,,,,,,,,,,,,
,,,,,,,,Cascade,2,Female,Hispanic/Latino,NA,2024-12-12_13h18.10.435,dissOSARI,2023.2.3,Win32,60.97560976,,,,,,,,,,,,,,,,,,,,,,,,,,,,,,,,58.6514,59.4691,59.4691,60.4695,,,,,,0,0.5,,,,,,,,,0,20,20,19,1,,,,,,,,,,,,,,,,,,,,,,,,,,,,,,,,,,,,,,,,,,,,,,,,,,,,,,,,,,,,,,
,,,,,,,,Cascade,2,Female,Hispanic/Latino,NA,2024-12-12_13h18.10.435,dissOSARI,2023.2.3,Win32,60.97560976,,,,,,,,,,,,,,,,,,,,,,,,,,,,,,,,60.4703,61.3537,61.3537,62.354,,,,,,0,0.5,,,,,,,,,0,21,21,6,1,,,,,,,,,,,,,,,,,,,,,,,,,,,,,,,,,,,,,,,,,,,,,,,,,,,,,,,,,,,,,,
,,,,,,,,Cascade,2,Female,Hispanic/Latino,NA,2024-12-12_13h18.10.435,dissOSARI,2023.2.3,Win32,60.97560976,,,,,,,,,,,,,,,,,,,,,,,,,,,,,,,,62.3543,63.3053,63.3053,64.3057,,,,,,0,0.5,,,,,,,,,0,22,22,29,1,,,,,,,,,,,,,,,,,,,,,,,,,,,,,,,,,,,,,,,,,,,,,,,,,,,,,,,,,,,,,,
,,,,,,,,Cascade,2,Female,Hispanic/Latino,NA,2024-12-12_13h18.10.435,dissOSARI,2023.2.3,Win32,60.97560976,,,,,,,,,,,,,,,,,,,,,,,,,,,,,,,,64.3062,65.1905,65.1906,66.1907,,,,,,0,0.5,,,,,,,,,0,23,23,33,1,,,,,,,,,,,,,,,,,,,,,,,,,,,,,,,,,,,,,,,,,,,,,,,,,,,,,,,,,,,,,,
,,,,,,,,Cascade,2,Female,Hispanic/Latino,NA,2024-12-12_13h18.10.435,dissOSARI,2023.2.3,Win32,60.97560976,,,,,,,,,,,,,,,,,,,,,,,,,,,,,,,,66.1911,67.009,67.0091,68.0087,,,,,,0,0.5,,,,,,,,,0,24,24,12,1,,,,,,,,,,,,,,,,,,,,,,,,,,,,,,,,,,,,,,,,,,,,,,,,,,,,,,,,,,,,,,
,,,,,,,,Cascade,2,Female,Hispanic/Latino,NA,2024-12-12_13h18.10.435,dissOSARI,2023.2.3,Win32,60.97560976,,,,,,,,,,,,,,,,,,,,,,,,,,,,,,,,68.0089,68.8267,68.8267,69.827,,,,,,0,0.5,,,,,,,,,0,25,25,46,1,,,,,,,,,,,,,,,,,,,,,,,,,,,,,,,,,,,,,,,,,,,,,,,,,,,,,,,,,,,,,,
,,,,,,,,Cascade,2,Female,Hispanic/Latino,NA,2024-12-12_13h18.10.435,dissOSARI,2023.2.3,Win32,60.97560976,,,,,,,,,,,,,,,,,,,,,,,,,,,,,,,,69.8274,70.6617,70.6617,71.6611,,,,,,0,0.5,,,,,,,,,0,26,26,4,1,,,,,,,,,,,,,,,,,,,,,,,,,,,,,,,,,,,,,,,,,,,,,,,,,,,,,,,,,,,,,,
,,,,,,,,Cascade,2,Female,Hispanic/Latino,NA,2024-12-12_13h18.10.435,dissOSARI,2023.2.3,Win32,60.97560976,,,,,,,,,,,,,,,,,,,,,,,,,,,,,,,,71.6613,72.479,72.479,73.4798,,,,,,0,0.5,,,,,,,,,0,27,27,47,1,,,,,,,,,,,,,,,,,,,,,,,,,,,,,,,,,,,,,,,,,,,,,,,,,,,,,,,,,,,,,,
,,,,,,,,Cascade,2,Female,Hispanic/Latino,NA,2024-12-12_13h18.10.435,dissOSARI,2023.2.3,Win32,60.97560976,,,,,,,,,,,,,,,,,,,,,,,,,,,,,,,,73.4803,74.2978,74.2979,75.2981,,,,,,0,0.5,,,,,,,,,0,28,28,30,1,,,,,,,,,,,,,,,,,,,,,,,,,,,,,,,,,,,,,,,,,,,,,,,,,,,,,,,,,,,,,,
,,,,,,,,Cascade,2,Female,Hispanic/Latino,NA,2024-12-12_13h18.10.435,dissOSARI,2023.2.3,Win32,60.97560976,,,,,,,,,,,,,,,,,,,,,,,,,,,,,,,,75.2987,76.1327,76.1327,77.133,,,,,,0,0.5,,,,,,,,,0,29,29,25,1,,,,,,,,,,,,,,,,,,,,,,,,,,,,,,,,,,,,,,,,,,,,,,,,,,,,,,,,,,,,,,
,,,,,,,,Cascade,2,Female,Hispanic/Latino,NA,2024-12-12_13h18.10.435,dissOSARI,2023.2.3,Win32,60.97560976,,,,,,,,,,,,,,,,,,,,,,,,,,,,,,,,77.1334,77.9678,77.9679,78.968,,,,,,0,0.5,,,,,,,,,0,30,30,22,1,,,,,,,,,,,,,,,,,,,,,,,,,,,,,,,,,,,,,,,,,,,,,,,,,,,,,,,,,,,,,,
,,,,,,,,Cascade,2,Female,Hispanic/Latino,NA,2024-12-12_13h18.10.435,dissOSARI,2023.2.3,Win32,60.97560976,,,,,,,,,,,,,,,,,,,,,,,,,,,,,,,,78.9684,79.7725,79.7726,80.7693,,,,,,0,0.5,,,,,,,,,0,31,31,0,1,,,,,,,,,,,,,,,,,,,,,,,,,,,,,,,,,,,,,,,,,,,,,,,,,,,,,,,,,,,,,,
,,,,,,,,Cascade,2,Female,Hispanic/Latino,NA,2024-12-12_13h18.10.435,dissOSARI,2023.2.3,Win32,60.97560976,,,,,,,,,,,,,,,,,,,,,,,,,,,,,,,,80.7698,81.6373,81.6373,82.637,,,,,,0,0.5,,,,,,,,,0,32,32,34,1,,,,,,,,,,,,,,,,,,,,,,,,,,,,,,,,,,,,,,,,,,,,,,,,,,,,,,,,,,,,,,
,,,,,,,,Cascade,2,Female,Hispanic/Latino,NA,2024-12-12_13h18.10.435,dissOSARI,2023.2.3,Win32,60.97560976,,,,,,,,,,,,,,,,,,,,,,,,,,,,,,,,82.6372,83.4722,83.4722,84.4728,,,,,,0,0.5,,,,,,,,,0,33,33,17,1,,,,,,,,,,,,,,,,,,,,,,,,,,,,,,,,,,,,,,,,,,,,,,,,,,,,,,,,,,,,,,
,,,,,,,,Cascade,2,Female,Hispanic/Latino,NA,2024-12-12_13h18.10.435,dissOSARI,2023.2.3,Win32,60.97560976,,,,,,,,,,,,,,,,,,,,,,,,,,,,,,,,84.4731,85.2903,85.2903,86.2907,,,,,,0,0.5,,,,,,,,,0,34,34,32,1,,,,,,,,,,,,,,,,,,,,,,,,,,,,,,,,,,,,,,,,,,,,,,,,,,,,,,,,,,,,,,
,,,,,,,,Cascade,2,Female,Hispanic/Latino,NA,2024-12-12_13h18.10.435,dissOSARI,2023.2.3,Win32,60.97560976,,,,,,,,,,,,,,,,,,,,,,,,,,,,,,,,86.2913,87.1087,87.1088,88.1086,,,,,,0,0.5,,,,,,,,,0,35,35,5,1,,,,,,,,,,,,,,,,,,,,,,,,,,,,,,,,,,,,,,,,,,,,,,,,,,,,,,,,,,,,,,
,,,,,,,,Cascade,2,Female,Hispanic/Latino,NA,2024-12-12_13h18.10.435,dissOSARI,2023.2.3,Win32,60.97560976,,,,,,,,,,,,,,,,,,,,,,,,,,,,,,,,88.1093,88.9434,88.9434,89.9435,,,,,,0,0.5,,,,,,,,,0,36,36,39,1,,,,,,,,,,,,,,,,,,,,,,,,,,,,,,,,,,,,,,,,,,,,,,,,,,,,,,,,,,,,,,
,,,,,,,,Cascade,2,Female,Hispanic/Latino,NA,2024-12-12_13h18.10.435,dissOSARI,2023.2.3,Win32,60.97560976,,,,,,,,,,,,,,,,,,,,,,,,,,,,,,,,89.9438,90.778,90.778,91.7786,,,,,,0,0.5,,,,,,,,,0,37,37,26,1,,,,,,,,,,,,,,,,,,,,,,,,,,,,,,,,,,,,,,,,,,,,,,,,,,,,,,,,,,,,,,
,,,,,,,,Cascade,2,Female,Hispanic/Latino,NA,2024-12-12_13h18.10.435,dissOSARI,2023.2.3,Win32,60.97560976,,,,,,,,,,,,,,,,,,,,,,,,,,,,,,,,91.7793,92.6457,92.6457,93.6466,,,,,,0,0.5,,,,,,,,,0,38,38,23,1,,,,,,,,,,,,,,,,,,,,,,,,,,,,,,,,,,,,,,,,,,,,,,,,,,,,,,,,,,,,,,
,,,,,,,,Cascade,2,Female,Hispanic/Latino,NA,2024-12-12_13h18.10.435,dissOSARI,2023.2.3,Win32,60.97560976,,,,,,,,,,,,,,,,,,,,,,,,,,,,,,,,93.647,94.4816,94.4816,95.4812,,,,,,0,0.5,,,,,,,,,0,39,39,18,1,,,,,,,,,,,,,,,,,,,,,,,,,,,,,,,,,,,,,,,,,,,,,,,,,,,,,,,,,,,,,,
,,,,,,,,Cascade,2,Female,Hispanic/Latino,NA,2024-12-12_13h18.10.435,dissOSARI,2023.2.3,Win32,60.97560976,,,,,,,,,,,,,,,,,,,,,,,,,,,,,,,,95.4816,96.3161,96.3161,97.3163,,,,,,0,0.5,,,,,,,,,0,40,40,41,1,,,,,,,,,,,,,,,,,,,,,,,,,,,,,,,,,,,,,,,,,,,,,,,,,,,,,,,,,,,,,,
,,,,,,,,Cascade,2,Female,Hispanic/Latino,NA,2024-12-12_13h18.10.435,dissOSARI,2023.2.3,Win32,60.97560976,,,,,,,,,,,,,,,,,,,,,,,,,,,,,,,,97.3167,98.0843,98.0843,99.0842,,,,,,0,0.5,,,,,,,,,0,41,41,40,1,,,,,,,,,,,,,,,,,,,,,,,,,,,,,,,,,,,,,,,,,,,,,,,,,,,,,,,,,,,,,,
,,,,,,,,Cascade,2,Female,Hispanic/Latino,NA,2024-12-12_13h18.10.435,dissOSARI,2023.2.3,Win32,60.97560976,,,,,,,,,,,,,,,,,,,,,,,,,,,,,,,,99.0846,99.9524,99.9525,100.9525,,,,,,0,0.5,,,,,,,,,0,42,42,20,1,,,,,,,,,,,,,,,,,,,,,,,,,,,,,,,,,,,,,,,,,,,,,,,,,,,,,,,,,,,,,,
,,,,,,,,Cascade,2,Female,Hispanic/Latino,NA,2024-12-12_13h18.10.435,dissOSARI,2023.2.3,Win32,60.97560976,,,,,,,,,,,,,,,,,,,,,,,,,,,,,,,,100.9529,101.7711,101.7711,102.7709,,,,,,0,0.5,,,,,,,,,0,43,43,16,1,,,,,,,,,,,,,,,,,,,,,,,,,,,,,,,,,,,,,,,,,,,,,,,,,,,,,,,,,,,,,,
,,,,,,,,Cascade,2,Female,Hispanic/Latino,NA,2024-12-12_13h18.10.435,dissOSARI,2023.2.3,Win32,60.97560976,,,,,,,,,,,,,,,,,,,,,,,,,,,,,,,,102.7713,103.589,103.5891,104.5889,,,,,,0,0.5,,,,,,,,,0,44,44,9,1,,,,,,,,,,,,,,,,,,,,,,,,,,,,,,,,,,,,,,,,,,,,,,,,,,,,,,,,,,,,,,
,,,,,,,,Cascade,2,Female,Hispanic/Latino,NA,2024-12-12_13h18.10.435,dissOSARI,2023.2.3,Win32,60.97560976,,,,,,,,,,,,,,,,,,,,,,,,,,,,,,,,104.5893,105.4071,105.4071,106.4074,,,,,,0,0.5,,,,,,,,,0,45,45,3,1,,,,,,,,,,,,,,,,,,,,,,,,,,,,,,,,,,,,,,,,,,,,,,,,,,,,,,,,,,,,,,
,,,,,,,,Cascade,2,Female,Hispanic/Latino,NA,2024-12-12_13h18.10.435,dissOSARI,2023.2.3,Win32,60.97560976,,,,,,,,,,,,,,,,,,,,,,,,,,,,,,,,106.408,107.2586,107.2587,108.2586,,,,,,0,0.5,,,,,,,,,0,46,46,8,1,,,,,,,,,,,,,,,,,,,,,,,,,,,,,,,,,,,,,,,,,,,,,,,,,,,,,,,,,,,,,,
,,,,,,,,Cascade,2,Female,Hispanic/Latino,NA,2024-12-12_13h18.10.435,dissOSARI,2023.2.3,Win32,60.97560976,,,,,,,,,,,,,,,,,,,,,,,,,,,,,,,,108.2592,109.0592,109.0592,110.06,,,,,,0,0.5,,,,,,,,,0,47,47,43,1,,,,,,,,,,,,,,,,,,,,,,,,,,,,,,,,,,,,,,,,,,,,,,,,,,,,,,,,,,,,,,
,,,,,,,,Cascade,2,Female,Hispanic/Latino,NA,2024-12-12_13h18.10.435,dissOSARI,2023.2.3,Win32,60.97560976,,,,,,,,,,,,,,,,,,,,,,,,,,,,,,,,110.0605,110.8782,110.8782,111.8781,,,,,,0,0.5,,,,,,,,,0,48,48,45,1,,,,,,,,,,,,,,,,,,,,,,,,,,,,,,,,,,,,,,,,,,,,,,,,,,,,,,,,,,,,,,
,,,,,,,,Cascade,2,Female,Hispanic/Latino,NA,2024-12-12_13h18.10.435,dissOSARI,2023.2.3,Win32,60.97560976,,,,,,,,,,,,,,,,,,,,,,,,,,,,,,,,111.8785,112.6789,112.6789,113.6799,,,,,,0,0.5,,,,,,,,,0,49,49,49,1,,,,,,,,,,,,,,,,,,,,,,,,,,,,,,,,,,,,,,,,,,,,,,,,,,,,,,,,,,,,,,
,,,,,,,,Cascade,2,Female,Hispanic/Latino,NA,2024-12-12_13h18.10.435,dissOSARI,2023.2.3,Win32,60.97560976,,,,,,,,,,,,,,,,,,,,,,,,,,,,,,,,,,,,,,,,,,,,,,,,,,,,,,,,113.6806,118.6506,0.07083016,-0.263899467,1,0,0,4.2031,,,,,,,,,,,,,,,,,,,,,,,,,,,,,,,,,,,,,,,,,,,,,,,,,,,,,,
,,,,,,,,Cascade,2,Female,Hispanic/Latino,NA,2024-12-12_13h18.10.435,dissOSARI,2023.2.3,Win32,60.97560976,,,,,,,,,,,,,,,,,,,,,,,,,,,,,,,,,,,,,,,,,,,,,,,,,,,,,,,,,,,,,,,,118.6507,119.3185,0.246763138,-0.30883473,1,0,0,0.4168,,,,,,,,,,,,,,,,,,,,,,,,,,,,,,,,,,,,,,,,,,,,,,
,,,,,,,,Cascade,2,Female,Hispanic/Latino,NA,2024-12-12_13h18.10.435,dissOSARI,2023.2.3,Win32,60.97560976,,,,,,,,,,,,,,,,,,,,,,,,,,,,,,,,,,,,,,,,,,,,,,,,,,,,,,,,,,,,,,,,,,,,,,,,119.3187,120.8193,0.355674029,-0.401751714,1,0,0,1.2341,,,,,,,,,,,,,,,,,,,,,,,,,,,,,,,,,,,,,,
,,,,,,,,Cascade,2,Female,Hispanic/Latino,NA,2024-12-12_13h18.10.435,dissOSARI,2023.2.3,Win32,60.97560976,,,,,,,,,,,,,,,,,,,,,,,,,,,,,,,,,,,,,,,,,,,,,,,,,,,,,,,,,,,,,,,,,,,,,,,,,,,,,,,,120.8195,121.5031,0.361766946,-0.400990099,1,0,0,0.4171,,,,,,,,,,,,,,,,,,,,,,,,,,,,,,
,,,,,,,,Cascade,2,Female,Hispanic/Latino,NA,2024-12-12_13h18.10.435,dissOSARI,2023.2.3,Win32,60.97560976,,,,,,,,,,,,,,,,,,,,,,,,,,,,,,,,121.5052,121.6036,121.6037,122.6035,,,,,,1,0.5,,,,,,,,,,,,,,,,,,,,,,,,,,,,,,,,,,,,,,,,,,,,,,0,0,0,4,1,,,,,,,,,,,,,,,,,,,,,,,,,
,,,,,,,,Cascade,2,Female,Hispanic/Latino,NA,2024-12-12_13h18.10.435,dissOSARI,2023.2.3,Win32,60.97560976,,,,,,,,,,,,,,,,,,,,,,,,,,,,,,,,122.6039,123.6218,123.6219,124.6221,,,,,,1,0.5,,,,,,,,,,,,,,,,,,,,,,,,,,,,,,,,,,,,,,,,,,,,,,0,1,1,0,1,,,,,,,,,,,,,,,,,,,,,,,,,
,,,,,,,,Cascade,2,Female,Hispanic/Latino,NA,2024-12-12_13h18.10.435,dissOSARI,2023.2.3,Win32,60.97560976,,,,,,,,,,,,,,,,,,,,,,,,,,,,,,,,124.6225,124.9399,124.94,125.9398,,,,,,1,0.5,,,,,,,,,,,,,,,,,,,,,,,,,,,,,,,,,,,,,,,,,,,,,,0,2,2,3,1,,,,,,,,,,,,,,,,,,,,,,,,,
,,,,,,,,Cascade,2,Female,Hispanic/Latino,NA,2024-12-12_13h18.10.435,dissOSARI,2023.2.3,Win32,60.97560976,,,,,,,,,,,,,,,,,,,,,,,,,,,,,,,,125.9402,127.2252,127.2252,128.2253,,,,,,1,0.5,,,,,,,,,,,,,,,,,,,,,,,,,,,,,,,,,,,,,,,,,,,,,,0,3,3,2,1,,,,,,,,,,,,,,,,,,,,,,,,,
,,,,,,,,Cascade,2,Female,Hispanic/Latino,NA,2024-12-12_13h18.10.435,dissOSARI,2023.2.3,Win32,60.97560976,,,,,,,,,,,,,,,,,,,,,,,,,,,,,,,,128.2259,129.4437,129.4437,130.4437,,,,,,0,0.5,,,,,,,,,,,,,,,,,,,,,,,,,,,,,,,,,,,,,,,,,,,,,,0,4,4,8,1,,,,,,,,,,,,,,,,,,,,,,,,,
,,,,,,,,Cascade,2,Female,Hispanic/Latino,NA,2024-12-12_13h18.10.435,dissOSARI,2023.2.3,Win32,60.97560976,,,,,,,,,,,,,,,,,,,,,,,,,,,,,,,,130.4441,131.4625,131.4626,132.4612,,,,,,1,0.5,,,,,,,,,,,,,,,,,,,,,,,,,,,,,,,,,,,,,,,,,,,,,,0,5,5,1,1,,,,,,,,,,,,,,,,,,,,,,,,,
,,,,,,,,Cascade,2,Female,Hispanic/Latino,NA,2024-12-12_13h18.10.435,dissOSARI,2023.2.3,Win32,60.97560976,,,,,,,,,,,,,,,,,,,,,,,,,,,,,,,,132.4615,133.6804,133.6804,134.6807,,,,,,0,0.5,,,,,,,,,,,,,,,,,,,,,,,,,,,,,,,,,,,,,,,,,,,,,,0,6,6,5,1,,,,,,,,,,,,,,,,,,,,,,,,,
,,,,,,,,Cascade,2,Female,Hispanic/Latino,NA,2024-12-12_13h18.10.435,dissOSARI,2023.2.3,Win32,60.97560976,,,,,,,,,,,,,,,,,,,,,,,,,,,,,,,,134.6817,135.5321,135.5321,136.5317,,,,,,0,0.5,,,,,,,,,,,,,,,,,,,,,,,,,,,,,,,,,,,,,,,,,,,,,,0,7,7,6,1,,,,,,,,,,,,,,,,,,,,,,,,,
,,,,,,,,Cascade,2,Female,Hispanic/Latino,NA,2024-12-12_13h18.10.435,dissOSARI,2023.2.3,Win32,60.97560976,,,,,,,,,,,,,,,,,,,,,,,,,,,,,,,,136.5321,137.2666,137.2666,138.267,,,,,,0,0.5,,,,,,,,,,,,,,,,,,,,,,,,,,,,,,,,,,,,,,,,,,,,,,0,8,8,7,1,,,,,,,,,,,,,,,,,,,,,,,,,
,,,,,,,,Cascade,2,Female,Hispanic/Latino,NA,2024-12-12_13h18.10.435,dissOSARI,2023.2.3,Win32,60.97560976,,,,,,,,,,,,,,,,,,,,,,,,,,,,,,,,138.2676,139.1016,139.1016,140.1015,,,,,,0,0.5,,,,,,,,,,,,,,,,,,,,,,,,,,,,,,,,,,,,,,,,,,,,,,0,9,9,9,1,,,,,,,,,,,,,,,,,,,,,,,,,
,,,,,,,,Cascade,2,Female,Hispanic/Latino,NA,2024-12-12_13h18.10.435,dissOSARI,2023.2.3,Win32,60.97560976,,,,,,,,,,,,,,,,,,,,,,,,,,,,,,,,142.7211,144.3891,144.3892,145.3894,,,,,,0,0.5,,,,,,,,,,,,,,,,,,,,,,,,,,,,,,,,,,,,,,,,,,,,,,,,,,,140.1037,142.7203,0,0,0,39,1,,,,,,,,,,,,,,,,,,
,,,,,,,,Cascade,2,Female,Hispanic/Latino,NA,2024-12-12_13h18.10.435,dissOSARI,2023.2.3,Win32,60.97560976,,,,,,,,,,,,,,,,,,,,,,,,,,,,,,,,145.39,146.274,146.2741,147.2743,,,,,,0,0.5,,,,,,,,,,,,,,,,,,,,,,,,,,,,,,,,,,,,,,,,,,,,,,,,,,,,,0,1,1,9,1,,,,,,,,,,,,,,,,,,
,,,,,,,,Cascade,2,Female,Hispanic/Latino,NA,2024-12-12_13h18.10.435,dissOSARI,2023.2.3,Win32,60.97560976,,,,,,,,,,,,,,,,,,,,,,,,,,,,,,,,147.2751,148.2253,148.2253,149.2258,,,,,,0,0.5,,,,,,,,,,,,,,,,,,,,,,,,,,,,,,,,,,,,,,,,,,,,,,,,,,,,,0,2,2,3,1,,,,,,,,,,,,,,,,,,
,,,,,,,,Cascade,2,Female,Hispanic/Latino,NA,2024-12-12_13h18.10.435,dissOSARI,2023.2.3,Win32,60.97560976,,,,,,,,,,,,,,,,,,,,,,,,,,,,,,,,149.2262,150.1939,150.1939,151.1942,,,,,,0,0.5,,,,,,,,,,,,,,,,,,,,,,,,,,,,,,,,,,,,,,,,,,,,,,,,,,,,,0,3,3,34,1,,,,,,,,,,,,,,,,,,
,,,,,,,,Cascade,2,Female,Hispanic/Latino,NA,2024-12-12_13h18.10.435,dissOSARI,2023.2.3,Win32,60.97560976,,,,,,,,,,,,,,,,,,,,,,,,,,,,,,,,151.1945,152.145,152.1451,153.1458,,,,,,0,0.5,,,,,,,,,,,,,,,,,,,,,,,,,,,,,,,,,,,,,,,,,,,,,,,,,,,,,0,4,4,46,1,,,,,,,,,,,,,,,,,,
,,,,,,,,Cascade,2,Female,Hispanic/Latino,NA,2024-12-12_13h18.10.435,dissOSARI,2023.2.3,Win32,60.97560976,,,,,,,,,,,,,,,,,,,,,,,,,,,,,,,,153.1462,154.014,154.014,155.0141,,,,,,0,0.5,,,,,,,,,,,,,,,,,,,,,,,,,,,,,,,,,,,,,,,,,,,,,,,,,,,,,0,5,5,54,1,,,,,,,,,,,,,,,,,,
,,,,,,,,Cascade,2,Female,Hispanic/Latino,NA,2024-12-12_13h18.10.435,dissOSARI,2023.2.3,Win32,60.97560976,,,,,,,,,,,,,,,,,,,,,,,,,,,,,,,,155.015,155.7987,155.7987,156.7986,,,,,,1,0.5,,,,,,,,,,,,,,,,,,,,,,,,,,,,,,,,,,,,,,,,,,,,,,,,,,,,,0,6,6,65,1,,,,,,,,,,,,,,,,,,
,,,,,,,,Cascade,2,Female,Hispanic/Latino,NA,2024-12-12_13h18.10.435,dissOSARI,2023.2.3,Win32,60.97560976,,,,,,,,,,,,,,,,,,,,,,,,,,,,,,,,156.799,157.6503,157.6503,158.6505,,,,,,0,0.5,,,,,,,,,,,,,,,,,,,,,,,,,,,,,,,,,,,,,,,,,,,,,,,,,,,,,0,7,7,40,1,,,,,,,,,,,,,,,,,,
,,,,,,,,Cascade,2,Female,Hispanic/Latino,NA,2024-12-12_13h18.10.435,dissOSARI,2023.2.3,Win32,60.97560976,,,,,,,,,,,,,,,,,,,,,,,,,,,,,,,,158.6509,159.4848,159.4849,160.4854,,,,,,0,0.5,,,,,,,,,,,,,,,,,,,,,,,,,,,,,,,,,,,,,,,,,,,,,,,,,,,,,0,8,8,43,1,,,,,,,,,,,,,,,,,,
,,,,,,,,Cascade,2,Female,Hispanic/Latino,NA,2024-12-12_13h18.10.435,dissOSARI,2023.2.3,Win32,60.97560976,,,,,,,,,,,,,,,,,,,,,,,,,,,,,,,,160.4858,161.5038,161.5038,162.5032,,,,,,1,0.5,,,,,,,,,,,,,,,,,,,,,,,,,,,,,,,,,,,,,,,,,,,,,,,,,,,,,0,9,9,70,1,,,,,,,,,,,,,,,,,,
,,,,,,,,Cascade,2,Female,Hispanic/Latino,NA,2024-12-12_13h18.10.435,dissOSARI,2023.2.3,Win32,60.97560976,,,,,,,,,,,,,,,,,,,,,,,,,,,,,,,,162.5035,163.672,163.672,164.6721,,,,,,0,0.5,,,,,,,,,,,,,,,,,,,,,,,,,,,,,,,,,,,,,,,,,,,,,,,,,,,,,0,10,10,38,1,,,,,,,,,,,,,,,,,,
,,,,,,,,Cascade,2,Female,Hispanic/Latino,NA,2024-12-12_13h18.10.435,dissOSARI,2023.2.3,Win32,60.97560976,,,,,,,,,,,,,,,,,,,,,,,,,,,,,,,,164.6726,165.5235,165.5235,166.5235,,,,,,0,0.5,,,,,,,,,,,,,,,,,,,,,,,,,,,,,,,,,,,,,,,,,,,,,,,,,,,,,0,11,11,16,1,,,,,,,,,,,,,,,,,,
,,,,,,,,Cascade,2,Female,Hispanic/Latino,NA,2024-12-12_13h18.10.435,dissOSARI,2023.2.3,Win32,60.97560976,,,,,,,,,,,,,,,,,,,,,,,,,,,,,,,,166.5238,167.3415,167.3416,168.3418,,,,,,0,0.5,,,,,,,,,,,,,,,,,,,,,,,,,,,,,,,,,,,,,,,,,,,,,,,,,,,,,0,12,12,52,1,,,,,,,,,,,,,,,,,,
,,,,,,,,Cascade,2,Female,Hispanic/Latino,NA,2024-12-12_13h18.10.435,dissOSARI,2023.2.3,Win32,60.97560976,,,,,,,,,,,,,,,,,,,,,,,,,,,,,,,,168.3423,169.1765,169.1765,170.1765,,,,,,0,0.5,,,,,,,,,,,,,,,,,,,,,,,,,,,,,,,,,,,,,,,,,,,,,,,,,,,,,0,13,13,12,1,,,,,,,,,,,,,,,,,,
,,,,,,,,Cascade,2,Female,Hispanic/Latino,NA,2024-12-12_13h18.10.435,dissOSARI,2023.2.3,Win32,60.97560976,,,,,,,,,,,,,,,,,,,,,,,,,,,,,,,,170.1771,170.9778,170.9779,171.9781,,,,,,0,0.5,,,,,,,,,,,,,,,,,,,,,,,,,,,,,,,,,,,,,,,,,,,,,,,,,,,,,0,14,14,20,1,,,,,,,,,,,,,,,,,,
,,,,,,,,Cascade,2,Female,Hispanic/Latino,NA,2024-12-12_13h18.10.435,dissOSARI,2023.2.3,Win32,60.97560976,,,,,,,,,,,,,,,,,,,,,,,,,,,,,,,,171.9788,172.8119,172.8119,173.8121,,,,,,0,0.5,,,,,,,,,,,,,,,,,,,,,,,,,,,,,,,,,,,,,,,,,,,,,,,,,,,,,0,15,15,48,1,,,,,,,,,,,,,,,,,,
,,,,,,,,Cascade,2,Female,Hispanic/Latino,NA,2024-12-12_13h18.10.435,dissOSARI,2023.2.3,Win32,60.97560976,,,,,,,,,,,,,,,,,,,,,,,,,,,,,,,,173.8123,174.831,174.831,175.8312,,,,,,1,0.5,,,,,,,,,,,,,,,,,,,,,,,,,,,,,,,,,,,,,,,,,,,,,,,,,,,,,0,16,16,72,1,,,,,,,,,,,,,,,,,,
,,,,,,,,Cascade,2,Female,Hispanic/Latino,NA,2024-12-12_13h18.10.435,dissOSARI,2023.2.3,Win32,60.97560976,,,,,,,,,,,,,,,,,,,,,,,,,,,,,,,,175.8319,176.9496,176.9496,177.9494,,,,,,0,0.5,,,,,,,,,,,,,,,,,,,,,,,,,,,,,,,,,,,,,,,,,,,,,,,,,,,,,0,17,17,41,1,,,,,,,,,,,,,,,,,,
,,,,,,,,Cascade,2,Female,Hispanic/Latino,NA,2024-12-12_13h18.10.435,dissOSARI,2023.2.3,Win32,60.97560976,,,,,,,,,,,,,,,,,,,,,,,,,,,,,,,,177.9499,178.7843,178.7843,179.7845,,,,,,0,0.5,,,,,,,,,,,,,,,,,,,,,,,,,,,,,,,,,,,,,,,,,,,,,,,,,,,,,0,18,18,5,1,,,,,,,,,,,,,,,,,,
,,,,,,,,Cascade,2,Female,Hispanic/Latino,NA,2024-12-12_13h18.10.435,dissOSARI,2023.2.3,Win32,60.97560976,,,,,,,,,,,,,,,,,,,,,,,,,,,,,,,,179.7849,180.5691,180.5692,181.5692,,,,,,0,0.5,,,,,,,,,,,,,,,,,,,,,,,,,,,,,,,,,,,,,,,,,,,,,,,,,,,,,0,19,19,51,1,,,,,,,,,,,,,,,,,,
,,,,,,,,Cascade,2,Female,Hispanic/Latino,NA,2024-12-12_13h18.10.435,dissOSARI,2023.2.3,Win32,60.97560976,,,,,,,,,,,,,,,,,,,,,,,,,,,,,,,,181.5698,182.4208,182.4208,183.421,,,,,,0,0.5,,,,,,,,,,,,,,,,,,,,,,,,,,,,,,,,,,,,,,,,,,,,,,,,,,,,,0,20,20,1,1,,,,,,,,,,,,,,,,,,
,,,,,,,,Cascade,2,Female,Hispanic/Latino,NA,2024-12-12_13h18.10.435,dissOSARI,2023.2.3,Win32,60.97560976,,,,,,,,,,,,,,,,,,,,,,,,,,,,,,,,183.4215,184.2888,184.2889,185.2887,,,,,,0,0.5,,,,,,,,,,,,,,,,,,,,,,,,,,,,,,,,,,,,,,,,,,,,,,,,,,,,,0,21,21,0,1,,,,,,,,,,,,,,,,,,
,,,,,,,,Cascade,2,Female,Hispanic/Latino,NA,2024-12-12_13h18.10.435,dissOSARI,2023.2.3,Win32,60.97560976,,,,,,,,,,,,,,,,,,,,,,,,,,,,,,,,185.2892,186.1069,186.1069,187.1071,,,,,,0,0.5,,,,,,,,,,,,,,,,,,,,,,,,,,,,,,,,,,,,,,,,,,,,,,,,,,,,,0,22,22,14,1,,,,,,,,,,,,,,,,,,
,,,,,,,,Cascade,2,Female,Hispanic/Latino,NA,2024-12-12_13h18.10.435,dissOSARI,2023.2.3,Win32,60.97560976,,,,,,,,,,,,,,,,,,,,,,,,,,,,,,,,187.1075,187.9753,187.9753,188.9752,,,,,,0,0.5,,,,,,,,,,,,,,,,,,,,,,,,,,,,,,,,,,,,,,,,,,,,,,,,,,,,,0,23,23,56,1,,,,,,,,,,,,,,,,,,
,,,,,,,,Cascade,2,Female,Hispanic/Latino,NA,2024-12-12_13h18.10.435,dissOSARI,2023.2.3,Win32,60.97560976,,,,,,,,,,,,,,,,,,,,,,,,,,,,,,,,188.9756,189.9934,189.9934,190.9937,,,,,,1,0.5,,,,,,,,,,,,,,,,,,,,,,,,,,,,,,,,,,,,,,,,,,,,,,,,,,,,,0,24,24,71,1,,,,,,,,,,,,,,,,,,
,,,,,,,,Cascade,2,Female,Hispanic/Latino,NA,2024-12-12_13h18.10.435,dissOSARI,2023.2.3,Win32,60.97560976,,,,,,,,,,,,,,,,,,,,,,,,,,,,,,,,190.9942,192.0786,192.0786,193.0787,,,,,,0,0.5,,,,,,,,,,,,,,,,,,,,,,,,,,,,,,,,,,,,,,,,,,,,,,,,,,,,,0,25,25,18,1,,,,,,,,,,,,,,,,,,
,,,,,,,,Cascade,2,Female,Hispanic/Latino,NA,2024-12-12_13h18.10.435,dissOSARI,2023.2.3,Win32,60.97560976,,,,,,,,,,,,,,,,,,,,,,,,,,,,,,,,193.0791,194.0981,194.0981,195.0972,,,,,,1,0.5,,,,,,,,,,,,,,,,,,,,,,,,,,,,,,,,,,,,,,,,,,,,,,,,,,,,,0,26,26,64,1,,,,,,,,,,,,,,,,,,
,,,,,,,,Cascade,2,Female,Hispanic/Latino,NA,2024-12-12_13h18.10.435,dissOSARI,2023.2.3,Win32,60.97560976,,,,,,,,,,,,,,,,,,,,,,,,,,,,,,,,195.0976,196.2154,196.2154,197.2155,,,,,,1,0.5,,,,,,,,,,,,,,,,,,,,,,,,,,,,,,,,,,,,,,,,,,,,,,,,,,,,,0,27,27,67,1,,,,,,,,,,,,,,,,,,
,,,,,,,,Cascade,2,Female,Hispanic/Latino,NA,2024-12-12_13h18.10.435,dissOSARI,2023.2.3,Win32,60.97560976,,,,,,,,,,,,,,,,,,,,,,,,,,,,,,,,197.216,198.4669,198.4669,199.4674,,,,,,1,0.5,,,,,,,,,,,,,,,,,,,,,,,,,,,,,,,,,,,,,,,,,,,,,,,,,,,,,0,28,28,76,1,,,,,,,,,,,,,,,,,,
,,,,,,,,Cascade,2,Female,Hispanic/Latino,NA,2024-12-12_13h18.10.435,dissOSARI,2023.2.3,Win32,60.97560976,,,,,,,,,,,,,,,,,,,,,,,,,,,,,,,,199.4677,200.6684,200.6684,201.6693,,,,,,1,0.5,,,,,,,,,,,,,,,,,,,,,,,,,,,,,,,,,,,,,,,,,,,,,,,,,,,,,0,29,29,60,1,,,,,,,,,,,,,,,,,,
,,,,,,,,Cascade,2,Female,Hispanic/Latino,NA,2024-12-12_13h18.10.435,dissOSARI,2023.2.3,Win32,60.97560976,,,,,,,,,,,,,,,,,,,,,,,,,,,,,,,,201.6697,202.7366,202.7366,203.7374,,,,,,0,0.5,,,,,,,,,,,,,,,,,,,,,,,,,,,,,,,,,,,,,,,,,,,,,,,,,,,,,0,30,30,57,1,,,,,,,,,,,,,,,,,,
,,,,,,,,Cascade,2,Female,Hispanic/Latino,NA,2024-12-12_13h18.10.435,dissOSARI,2023.2.3,Win32,60.97560976,,,,,,,,,,,,,,,,,,,,,,,,,,,,,,,,203.7379,204.589,204.589,205.5894,,,,,,0,0.5,,,,,,,,,,,,,,,,,,,,,,,,,,,,,,,,,,,,,,,,,,,,,,,,,,,,,0,31,31,31,1,,,,,,,,,,,,,,,,,,
,,,,,,,,Cascade,2,Female,Hispanic/Latino,NA,2024-12-12_13h18.10.435,dissOSARI,2023.2.3,Win32,60.97560976,,,,,,,,,,,,,,,,,,,,,,,,,,,,,,,,205.5902,206.423,206.423,207.4238,,,,,,0,0.5,,,,,,,,,,,,,,,,,,,,,,,,,,,,,,,,,,,,,,,,,,,,,,,,,,,,,0,32,32,42,1,,,,,,,,,,,,,,,,,,
,,,,,,,,Cascade,2,Female,Hispanic/Latino,NA,2024-12-12_13h18.10.435,dissOSARI,2023.2.3,Win32,60.97560976,,,,,,,,,,,,,,,,,,,,,,,,,,,,,,,,207.424,208.4421,208.4421,209.4424,,,,,,1,0.5,,,,,,,,,,,,,,,,,,,,,,,,,,,,,,,,,,,,,,,,,,,,,,,,,,,,,0,33,33,77,1,,,,,,,,,,,,,,,,,,
,,,,,,,,Cascade,2,Female,Hispanic/Latino,NA,2024-12-12_13h18.10.435,dissOSARI,2023.2.3,Win32,60.97560976,,,,,,,,,,,,,,,,,,,,,,,,,,,,,,,,209.4428,210.544,210.544,211.5438,,,,,,1,0.5,,,,,,,,,,,,,,,,,,,,,,,,,,,,,,,,,,,,,,,,,,,,,,,,,,,,,0,34,34,66,1,,,,,,,,,,,,,,,,,,
,,,,,,,,Cascade,2,Female,Hispanic/Latino,NA,2024-12-12_13h18.10.435,dissOSARI,2023.2.3,Win32,60.97560976,,,,,,,,,,,,,,,,,,,,,,,,,,,,,,,,211.5442,212.5446,212.5447,213.5457,,,,,,0,0.5,,,,,,,,,,,,,,,,,,,,,,,,,,,,,,,,,,,,,,,,,,,,,,,,,,,,,0,35,35,27,1,,,,,,,,,,,,,,,,,,
,,,,,,,,Cascade,2,Female,Hispanic/Latino,NA,2024-12-12_13h18.10.435,dissOSARI,2023.2.3,Win32,60.97560976,,,,,,,,,,,,,,,,,,,,,,,,,,,,,,,,213.5463,214.3972,214.3972,215.3974,,,,,,0,0.5,,,,,,,,,,,,,,,,,,,,,,,,,,,,,,,,,,,,,,,,,,,,,,,,,,,,,0,36,36,32,1,,,,,,,,,,,,,,,,,,
,,,,,,,,Cascade,2,Female,Hispanic/Latino,NA,2024-12-12_13h18.10.435,dissOSARI,2023.2.3,Win32,60.97560976,,,,,,,,,,,,,,,,,,,,,,,,,,,,,,,,215.3981,216.4154,216.4154,217.4152,,,,,,1,0.5,,,,,,,,,,,,,,,,,,,,,,,,,,,,,,,,,,,,,,,,,,,,,,,,,,,,,0,37,37,68,1,,,,,,,,,,,,,,,,,,
,,,,,,,,Cascade,2,Female,Hispanic/Latino,NA,2024-12-12_13h18.10.435,dissOSARI,2023.2.3,Win32,60.97560976,,,,,,,,,,,,,,,,,,,,,,,,,,,,,,,,217.4154,218.3173,218.3173,219.317,,,,,,0,0.5,,,,,,,,,,,,,,,,,,,,,,,,,,,,,,,,,,,,,,,,,,,,,,,,,,,,,0,38,38,37,1,,,,,,,,,,,,,,,,,,
,,,,,,,,Cascade,2,Female,Hispanic/Latino,NA,2024-12-12_13h18.10.435,dissOSARI,2023.2.3,Win32,60.97560976,,,,,,,,,,,,,,,,,,,,,,,,,,,,,,,,219.3175,220.1853,220.1853,221.1853,,,,,,0,0.5,,,,,,,,,,,,,,,,,,,,,,,,,,,,,,,,,,,,,,,,,,,,,,,,,,,,,0,39,39,13,1,,,,,,,,,,,,,,,,,,
,,,,,,,,Cascade,2,Female,Hispanic/Latino,NA,2024-12-12_13h18.10.435,dissOSARI,2023.2.3,Win32,60.97560976,,,,,,,,,,,,,,,,,,,,,,,,,,,,,,,,221.1857,221.9535,221.9535,222.9536,,,,,,0,0.5,,,,,,,,,,,,,,,,,,,,,,,,,,,,,,,,,,,,,,,,,,,,,,,,,,,,,0,40,40,29,1,,,,,,,,,,,,,,,,,,
,,,,,,,,Cascade,2,Female,Hispanic/Latino,NA,2024-12-12_13h18.10.435,dissOSARI,2023.2.3,Win32,60.97560976,,,,,,,,,,,,,,,,,,,,,,,,,,,,,,,,222.9541,223.8384,223.8385,224.8387,,,,,,0,0.5,,,,,,,,,,,,,,,,,,,,,,,,,,,,,,,,,,,,,,,,,,,,,,,,,,,,,0,41,41,10,1,,,,,,,,,,,,,,,,,,
,,,,,,,,Cascade,2,Female,Hispanic/Latino,NA,2024-12-12_13h18.10.435,dissOSARI,2023.2.3,Win32,60.97560976,,,,,,,,,,,,,,,,,,,,,,,,,,,,,,,,224.8395,225.69,225.6901,226.6903,,,,,,0,0.5,,,,,,,,,,,,,,,,,,,,,,,,,,,,,,,,,,,,,,,,,,,,,,,,,,,,,0,42,42,15,1,,,,,,,,,,,,,,,,,,
,,,,,,,,Cascade,2,Female,Hispanic/Latino,NA,2024-12-12_13h18.10.435,dissOSARI,2023.2.3,Win32,60.97560976,,,,,,,,,,,,,,,,,,,,,,,,,,,,,,,,226.6908,227.5079,227.5079,228.5082,,,,,,0,0.5,,,,,,,,,,,,,,,,,,,,,,,,,,,,,,,,,,,,,,,,,,,,,,,,,,,,,0,43,43,28,1,,,,,,,,,,,,,,,,,,
,,,,,,,,Cascade,2,Female,Hispanic/Latino,NA,2024-12-12_13h18.10.435,dissOSARI,2023.2.3,Win32,60.97560976,,,,,,,,,,,,,,,,,,,,,,,,,,,,,,,,228.5085,229.4265,229.4265,230.4257,,,,,,0,0.5,,,,,,,,,,,,,,,,,,,,,,,,,,,,,,,,,,,,,,,,,,,,,,,,,,,,,0,44,44,21,1,,,,,,,,,,,,,,,,,,
,,,,,,,,Cascade,2,Female,Hispanic/Latino,NA,2024-12-12_13h18.10.435,dissOSARI,2023.2.3,Win32,60.97560976,,,,,,,,,,,,,,,,,,,,,,,,,,,,,,,,230.4259,231.2108,231.2108,232.211,,,,,,1,0.5,,,,,,,,,,,,,,,,,,,,,,,,,,,,,,,,,,,,,,,,,,,,,,,,,,,,,0,45,45,79,1,,,,,,,,,,,,,,,,,,
,,,,,,,,Cascade,2,Female,Hispanic/Latino,NA,2024-12-12_13h18.10.435,dissOSARI,2023.2.3,Win32,60.97560976,,,,,,,,,,,,,,,,,,,,,,,,,,,,,,,,232.2116,232.2284,232.2284,233.2285,,,,,,0,0.5,,,,,,,,,,,,,,,,,,,,,,,,,,,,,,,,,,,,,,,,,,,,,,,,,,,,,0,46,46,4,1,,,,,,,,,,,,,,,,,,
,,,,,,,,Cascade,2,Female,Hispanic/Latino,NA,2024-12-12_13h18.10.435,dissOSARI,2023.2.3,Win32,60.97560976,,,,,,,,,,,,,,,,,,,,,,,,,,,,,,,,233.2288,233.9962,233.9963,234.997,,,,,,0,0.5,,,,,,,,,,,,,,,,,,,,,,,,,,,,,,,,,,,,,,,,,,,,,,,,,,,,,0,47,47,35,1,,,,,,,,,,,,,,,,,,
,,,,,,,,Cascade,2,Female,Hispanic/Latino,NA,2024-12-12_13h18.10.435,dissOSARI,2023.2.3,Win32,60.97560976,,,,,,,,,,,,,,,,,,,,,,,,,,,,,,,,234.9972,236.6658,236.6658,237.6659,,,,,,0,0.5,,,,,,,,,,,,,,,,,,,,,,,,,,,,,,,,,,,,,,,,,,,,,,,,,,,,,0,48,48,59,1,,,,,,,,,,,,,,,,,,
,,,,,,,,Cascade,2,Female,Hispanic/Latino,NA,2024-12-12_13h18.10.435,dissOSARI,2023.2.3,Win32,60.97560976,,,,,,,,,,,,,,,,,,,,,,,,,,,,,,,,237.6664,238.7005,238.7006,239.7007,,,,,,0,0.5,,,,,,,,,,,,,,,,,,,,,,,,,,,,,,,,,,,,,,,,,,,,,,,,,,,,,0,49,49,11,1,,,,,,,,,,,,,,,,,,
,,,,,,,,Cascade,2,Female,Hispanic/Latino,NA,2024-12-12_13h18.10.435,dissOSARI,2023.2.3,Win32,60.97560976,,,,,,,,,,,,,,,,,,,,,,,,,,,,,,,,239.7014,240.7521,240.7521,241.7523,,,,,,0,0.5,,,,,,,,,,,,,,,,,,,,,,,,,,,,,,,,,,,,,,,,,,,,,,,,,,,,,0,50,50,6,1,,,,,,,,,,,,,,,,,,
,,,,,,,,Cascade,2,Female,Hispanic/Latino,NA,2024-12-12_13h18.10.435,dissOSARI,2023.2.3,Win32,60.97560976,,,,,,,,,,,,,,,,,,,,,,,,,,,,,,,,241.7528,242.5696,242.5696,243.5705,,,,,,0,0.5,,,,,,,,,,,,,,,,,,,,,,,,,,,,,,,,,,,,,,,,,,,,,,,,,,,,,0,51,51,55,1,,,,,,,,,,,,,,,,,,
,,,,,,,,Cascade,2,Female,Hispanic/Latino,NA,2024-12-12_13h18.10.435,dissOSARI,2023.2.3,Win32,60.97560976,,,,,,,,,,,,,,,,,,,,,,,,,,,,,,,,243.571,244.3719,244.3719,245.372,,,,,,1,0.5,,,,,,,,,,,,,,,,,,,,,,,,,,,,,,,,,,,,,,,,,,,,,,,,,,,,,0,52,52,63,1,,,,,,,,,,,,,,,,,,
,,,,,,,,Cascade,2,Female,Hispanic/Latino,NA,2024-12-12_13h18.10.435,dissOSARI,2023.2.3,Win32,60.97560976,,,,,,,,,,,,,,,,,,,,,,,,,,,,,,,,245.3723,246.4402,246.4402,247.4404,,,,,,0,0.5,,,,,,,,,,,,,,,,,,,,,,,,,,,,,,,,,,,,,,,,,,,,,,,,,,,,,0,53,53,50,1,,,,,,,,,,,,,,,,,,
,,,,,,,,Cascade,2,Female,Hispanic/Latino,NA,2024-12-12_13h18.10.435,dissOSARI,2023.2.3,Win32,60.97560976,,,,,,,,,,,,,,,,,,,,,,,,,,,,,,,,247.4409,248.5252,248.5252,249.5253,,,,,,1,0.5,,,,,,,,,,,,,,,,,,,,,,,,,,,,,,,,,,,,,,,,,,,,,,,,,,,,,0,54,54,73,1,,,,,,,,,,,,,,,,,,
,,,,,,,,Cascade,2,Female,Hispanic/Latino,NA,2024-12-12_13h18.10.435,dissOSARI,2023.2.3,Win32,60.97560976,,,,,,,,,,,,,,,,,,,,,,,,,,,,,,,,249.5257,250.6605,250.6605,251.6606,,,,,,1,0.5,,,,,,,,,,,,,,,,,,,,,,,,,,,,,,,,,,,,,,,,,,,,,,,,,,,,,0,55,55,75,1,,,,,,,,,,,,,,,,,,
,,,,,,,,Cascade,2,Female,Hispanic/Latino,NA,2024-12-12_13h18.10.435,dissOSARI,2023.2.3,Win32,60.97560976,,,,,,,,,,,,,,,,,,,,,,,,,,,,,,,,251.6609,252.6445,252.6445,253.6457,,,,,,0,0.5,,,,,,,,,,,,,,,,,,,,,,,,,,,,,,,,,,,,,,,,,,,,,,,,,,,,,0,56,56,17,1,,,,,,,,,,,,,,,,,,
,,,,,,,,Cascade,2,Female,Hispanic/Latino,NA,2024-12-12_13h18.10.435,dissOSARI,2023.2.3,Win32,60.97560976,,,,,,,,,,,,,,,,,,,,,,,,,,,,,,,,253.6464,254.53,254.53,255.5305,,,,,,0,0.5,,,,,,,,,,,,,,,,,,,,,,,,,,,,,,,,,,,,,,,,,,,,,,,,,,,,,0,57,57,24,1,,,,,,,,,,,,,,,,,,
,,,,,,,,Cascade,2,Female,Hispanic/Latino,NA,2024-12-12_13h18.10.435,dissOSARI,2023.2.3,Win32,60.97560976,,,,,,,,,,,,,,,,,,,,,,,,,,,,,,,,255.531,256.3486,256.3487,257.3485,,,,,,0,0.5,,,,,,,,,,,,,,,,,,,,,,,,,,,,,,,,,,,,,,,,,,,,,,,,,,,,,0,58,58,23,1,,,,,,,,,,,,,,,,,,
,,,,,,,,Cascade,2,Female,Hispanic/Latino,NA,2024-12-12_13h18.10.435,dissOSARI,2023.2.3,Win32,60.97560976,,,,,,,,,,,,,,,,,,,,,,,,,,,,,,,,257.349,258.3668,258.3668,259.3669,,,,,,1,0.5,,,,,,,,,,,,,,,,,,,,,,,,,,,,,,,,,,,,,,,,,,,,,,,,,,,,,0,59,59,78,1,,,,,,,,,,,,,,,,,,
,,,,,,,,Cascade,2,Female,Hispanic/Latino,NA,2024-12-12_13h18.10.435,dissOSARI,2023.2.3,Win32,60.97560976,,,,,,,,,,,,,,,,,,,,,,,,,,,,,,,,259.3673,260.3849,260.3849,261.3852,,,,,,0,0.5,,,,,,,,,,,,,,,,,,,,,,,,,,,,,,,,,,,,,,,,,,,,,,,,,,,,,0,60,60,36,1,,,,,,,,,,,,,,,,,,
,,,,,,,,Cascade,2,Female,Hispanic/Latino,NA,2024-12-12_13h18.10.435,dissOSARI,2023.2.3,Win32,60.97560976,,,,,,,,,,,,,,,,,,,,,,,,,,,,,,,,261.3856,262.2699,262.2699,263.2701,,,,,,0,0.5,,,,,,,,,,,,,,,,,,,,,,,,,,,,,,,,,,,,,,,,,,,,,,,,,,,,,0,61,61,19,1,,,,,,,,,,,,,,,,,,
,,,,,,,,Cascade,2,Female,Hispanic/Latino,NA,2024-12-12_13h18.10.435,dissOSARI,2023.2.3,Win32,60.97560976,,,,,,,,,,,,,,,,,,,,,,,,,,,,,,,,263.2704,264.1048,264.1048,265.1051,,,,,,0,0.5,,,,,,,,,,,,,,,,,,,,,,,,,,,,,,,,,,,,,,,,,,,,,,,,,,,,,0,62,62,33,1,,,,,,,,,,,,,,,,,,
,,,,,,,,Cascade,2,Female,Hispanic/Latino,NA,2024-12-12_13h18.10.435,dissOSARI,2023.2.3,Win32,60.97560976,,,,,,,,,,,,,,,,,,,,,,,,,,,,,,,,265.1055,265.9065,265.9065,266.9065,,,,,,1,0.5,,,,,,,,,,,,,,,,,,,,,,,,,,,,,,,,,,,,,,,,,,,,,,,,,,,,,0,63,63,61,1,,,,,,,,,,,,,,,,,,
,,,,,,,,Cascade,2,Female,Hispanic/Latino,NA,2024-12-12_13h18.10.435,dissOSARI,2023.2.3,Win32,60.97560976,,,,,,,,,,,,,,,,,,,,,,,,,,,,,,,,266.9069,267.9247,267.9247,268.9249,,,,,,1,0.5,,,,,,,,,,,,,,,,,,,,,,,,,,,,,,,,,,,,,,,,,,,,,,,,,,,,,0,64,64,74,1,,,,,,,,,,,,,,,,,,
,,,,,,,,Cascade,2,Female,Hispanic/Latino,NA,2024-12-12_13h18.10.435,dissOSARI,2023.2.3,Win32,60.97560976,,,,,,,,,,,,,,,,,,,,,,,,,,,,,,,,268.9254,269.7931,269.7931,270.793,,,,,,0,0.5,,,,,,,,,,,,,,,,,,,,,,,,,,,,,,,,,,,,,,,,,,,,,,,,,,,,,0,65,65,26,1,,,,,,,,,,,,,,,,,,
,,,,,,,,Cascade,2,Female,Hispanic/Latino,NA,2024-12-12_13h18.10.435,dissOSARI,2023.2.3,Win32,60.97560976,,,,,,,,,,,,,,,,,,,,,,,,,,,,,,,,270.7934,271.6612,271.6613,272.6607,,,,,,0,0.5,,,,,,,,,,,,,,,,,,,,,,,,,,,,,,,,,,,,,,,,,,,,,,,,,,,,,0,66,66,2,1,,,,,,,,,,,,,,,,,,
,,,,,,,,Cascade,2,Female,Hispanic/Latino,NA,2024-12-12_13h18.10.435,dissOSARI,2023.2.3,Win32,60.97560976,,,,,,,,,,,,,,,,,,,,,,,,,,,,,,,,272.661,273.5294,273.5294,274.5292,,,,,,0,0.5,,,,,,,,,,,,,,,,,,,,,,,,,,,,,,,,,,,,,,,,,,,,,,,,,,,,,0,67,67,53,1,,,,,,,,,,,,,,,,,,
,,,,,,,,Cascade,2,Female,Hispanic/Latino,NA,2024-12-12_13h18.10.435,dissOSARI,2023.2.3,Win32,60.97560976,,,,,,,,,,,,,,,,,,,,,,,,,,,,,,,,274.5296,275.5475,275.5475,276.548,,,,,,1,0.5,,,,,,,,,,,,,,,,,,,,,,,,,,,,,,,,,,,,,,,,,,,,,,,,,,,,,0,68,68,69,1,,,,,,,,,,,,,,,,,,
,,,,,,,,Cascade,2,Female,Hispanic/Latino,NA,2024-12-12_13h18.10.435,dissOSARI,2023.2.3,Win32,60.97560976,,,,,,,,,,,,,,,,,,,,,,,,,,,,,,,,276.5485,277.5983,277.5983,278.5994,,,,,,0,0.5,,,,,,,,,,,,,,,,,,,,,,,,,,,,,,,,,,,,,,,,,,,,,,,,,,,,,0,69,69,58,1,,,,,,,,,,,,,,,,,,
,,,,,,,,Cascade,2,Female,Hispanic/Latino,NA,2024-12-12_13h18.10.435,dissOSARI,2023.2.3,Win32,60.97560976,,,,,,,,,,,,,,,,,,,,,,,,,,,,,,,,278.5998,279.4509,279.4509,280.4508,,,,,,0,0.5,,,,,,,,,,,,,,,,,,,,,,,,,,,,,,,,,,,,,,,,,,,,,,,,,,,,,0,70,70,45,1,,,,,,,,,,,,,,,,,,
,,,,,,,,Cascade,2,Female,Hispanic/Latino,NA,2024-12-12_13h18.10.435,dissOSARI,2023.2.3,Win32,60.97560976,,,,,,,,,,,,,,,,,,,,,,,,,,,,,,,,280.4512,281.319,281.319,282.3199,,,,,,0,0.5,,,,,,,,,,,,,,,,,,,,,,,,,,,,,,,,,,,,,,,,,,,,,,,,,,,,,0,71,71,8,1,,,,,,,,,,,,,,,,,,
,,,,,,,,Cascade,2,Female,Hispanic/Latino,NA,2024-12-12_13h18.10.435,dissOSARI,2023.2.3,Win32,60.97560976,,,,,,,,,,,,,,,,,,,,,,,,,,,,,,,,282.3202,283.12,283.12,284.1207,,,,,,0,0.5,,,,,,,,,,,,,,,,,,,,,,,,,,,,,,,,,,,,,,,,,,,,,,,,,,,,,0,72,72,30,1,,,,,,,,,,,,,,,,,,
,,,,,,,,Cascade,2,Female,Hispanic/Latino,NA,2024-12-12_13h18.10.435,dissOSARI,2023.2.3,Win32,60.97560976,,,,,,,,,,,,,,,,,,,,,,,,,,,,,,,,284.121,284.9223,284.9223,285.9223,,,,,,0,0.5,,,,,,,,,,,,,,,,,,,,,,,,,,,,,,,,,,,,,,,,,,,,,,,,,,,,,0,73,73,44,1,,,,,,,,,,,,,,,,,,
,,,,,,,,Cascade,2,Female,Hispanic/Latino,NA,2024-12-12_13h18.10.435,dissOSARI,2023.2.3,Win32,60.97560976,,,,,,,,,,,,,,,,,,,,,,,,,,,,,,,,285.9231,286.7736,286.7736,287.7736,,,,,,0,0.5,,,,,,,,,,,,,,,,,,,,,,,,,,,,,,,,,,,,,,,,,,,,,,,,,,,,,0,74,74,49,1,,,,,,,,,,,,,,,,,,
,,,,,,,,Cascade,2,Female,Hispanic/Latino,NA,2024-12-12_13h18.10.435,dissOSARI,2023.2.3,Win32,60.97560976,,,,,,,,,,,,,,,,,,,,,,,,,,,,,,,,287.7741,288.6251,288.6251,289.6248,,,,,,0,0.5,,,,,,,,,,,,,,,,,,,,,,,,,,,,,,,,,,,,,,,,,,,,,,,,,,,,,0,75,75,22,1,,,,,,,,,,,,,,,,,,
,,,,,,,,Cascade,2,Female,Hispanic/Latino,NA,2024-12-12_13h18.10.435,dissOSARI,2023.2.3,Win32,60.97560976,,,,,,,,,,,,,,,,,,,,,,,,,,,,,,,,289.6251,290.4267,290.4268,291.4269,,,,,,0,0.5,,,,,,,,,,,,,,,,,,,,,,,,,,,,,,,,,,,,,,,,,,,,,,,,,,,,,0,76,76,25,1,,,,,,,,,,,,,,,,,,
,,,,,,,,Cascade,2,Female,Hispanic/Latino,NA,2024-12-12_13h18.10.435,dissOSARI,2023.2.3,Win32,60.97560976,,,,,,,,,,,,,,,,,,,,,,,,,,,,,,,,291.4276,292.2615,292.2616,293.2615,,,,,,0,0.5,,,,,,,,,,,,,,,,,,,,,,,,,,,,,,,,,,,,,,,,,,,,,,,,,,,,,0,77,77,7,1,,,,,,,,,,,,,,,,,,
,,,,,,,,Cascade,2,Female,Hispanic/Latino,NA,2024-12-12_13h18.10.435,dissOSARI,2023.2.3,Win32,60.97560976,,,,,,,,,,,,,,,,,,,,,,,,,,,,,,,,293.2619,294.2803,294.2804,295.2799,,,,,,1,0.5,,,,,,,,,,,,,,,,,,,,,,,,,,,,,,,,,,,,,,,,,,,,,,,,,,,,,0,78,78,62,1,,,,,,,,,,,,,,,,,,
,,,,,,,,Cascade,2,Female,Hispanic/Latino,NA,2024-12-12_13h18.10.435,dissOSARI,2023.2.3,Win32,60.97560976,,,,,,,,,,,,,,,,,,,,,,,,,,,,,,,,295.2804,296.3651,296.3651,297.3652,,,,,,0,0.5,,,,,,,,,,,,,,,,,,,,,,,,,,,,,,,,,,,,,,,,,,,,,,,,,,,,,0,79,79,47,1,,,,,,,,,,,,,,,,,,
,,,,,,,,Cascade,2,Female,Hispanic/Latino,NA,2024-12-12_13h18.10.435,dissOSARI,2023.2.3,Win32,60.97560976,,,,,,,,,,,,,,,,,,,,,,,,,,,,,,,,339.6565,341.7559,341.7559,342.7519,,,,,,0,0.5,,,,,,,,,,,,,,,,,,,,,,,,,,,,,,,,,,,,,,,,,,,,,,,,,,,297.366,339.6541,0,0,0,21,1,,,,,,,,,,,,,,,,,,
,,,,,,,,Cascade,2,Female,Hispanic/Latino,NA,2024-12-12_13h18.10.435,dissOSARI,2023.2.3,Win32,60.97560976,,,,,,,,,,,,,,,,,,,,,,,,,,,,,,,,342.7521,343.7237,343.7237,344.7209,,,,,,0,0.5,,,,,,,,,,,,,,,,,,,,,,,,,,,,,,,,,,,,,,,,,,,,,,,,,,,,,0,1,1,12,1,,,,,,,,,,,,,,,,,,
,,,,,,,,Cascade,2,Female,Hispanic/Latino,NA,2024-12-12_13h18.10.435,dissOSARI,2023.2.3,Win32,60.97560976,,,,,,,,,,,,,,,,,,,,,,,,,,,,,,,,344.7215,345.7767,345.7768,346.7761,,,,,,0,0.5,,,,,,,,,,,,,,,,,,,,,,,,,,,,,,,,,,,,,,,,,,,,,,,,,,,,,0,2,2,27,1,,,,,,,,,,,,,,,,,,
,,,,,,,,Cascade,2,Female,Hispanic/Latino,NA,2024-12-12_13h18.10.435,dissOSARI,2023.2.3,Win32,60.97560976,,,,,,,,,,,,,,,,,,,,,,,,,,,,,,,,346.7763,347.244,347.244,348.244,,,,,,0,0.5,,,,,,,,,,,,,,,,,,,,,,,,,,,,,,,,,,,,,,,,,,,,,,,,,,,,,0,3,3,47,1,,,,,,,,,,,,,,,,,,
,,,,,,,,Cascade,2,Female,Hispanic/Latino,NA,2024-12-12_13h18.10.435,dissOSARI,2023.2.3,Win32,60.97560976,,,,,,,,,,,,,,,,,,,,,,,,,,,,,,,,348.2443,349.5288,349.5289,350.5254,,,,,,0,0.5,,,,,,,,,,,,,,,,,,,,,,,,,,,,,,,,,,,,,,,,,,,,,,,,,,,,,0,4,4,18,1,,,,,,,,,,,,,,,,,,
,,,,,,,,Cascade,2,Female,Hispanic/Latino,NA,2024-12-12_13h18.10.435,dissOSARI,2023.2.3,Win32,60.97560976,,,,,,,,,,,,,,,,,,,,,,,,,,,,,,,,350.5257,351.5301,351.5301,352.5307,,,,,,0,0.5,,,,,,,,,,,,,,,,,,,,,,,,,,,,,,,,,,,,,,,,,,,,,,,,,,,,,0,5,5,44,1,,,,,,,,,,,,,,,,,,
,,,,,,,,Cascade,2,Female,Hispanic/Latino,NA,2024-12-12_13h18.10.435,dissOSARI,2023.2.3,Win32,60.97560976,,,,,,,,,,,,,,,,,,,,,,,,,,,,,,,,352.5309,353.3985,353.3985,354.3987,,,,,,0,0.5,,,,,,,,,,,,,,,,,,,,,,,,,,,,,,,,,,,,,,,,,,,,,,,,,,,,,0,6,6,48,1,,,,,,,,,,,,,,,,,,
,,,,,,,,Cascade,2,Female,Hispanic/Latino,NA,2024-12-12_13h18.10.435,dissOSARI,2023.2.3,Win32,60.97560976,,,,,,,,,,,,,,,,,,,,,,,,,,,,,,,,354.3989,355.2174,355.2174,356.2134,,,,,,0,0.5,,,,,,,,,,,,,,,,,,,,,,,,,,,,,,,,,,,,,,,,,,,,,,,,,,,,,0,7,7,15,1,,,,,,,,,,,,,,,,,,
,,,,,,,,Cascade,2,Female,Hispanic/Latino,NA,2024-12-12_13h18.10.435,dissOSARI,2023.2.3,Win32,60.97560976,,,,,,,,,,,,,,,,,,,,,,,,,,,,,,,,356.2137,357.3024,357.3024,358.3024,,,,,,1,0.5,,,,,,,,,,,,,,,,,,,,,,,,,,,,,,,,,,,,,,,,,,,,,,,,,,,,,0,8,8,64,1,,,,,,,,,,,,,,,,,,
,,,,,,,,Cascade,2,Female,Hispanic/Latino,NA,2024-12-12_13h18.10.435,dissOSARI,2023.2.3,Win32,60.97560976,,,,,,,,,,,,,,,,,,,,,,,,,,,,,,,,358.3026,359.3703,359.3703,360.3709,,,,,,0,0.5,,,,,,,,,,,,,,,,,,,,,,,,,,,,,,,,,,,,,,,,,,,,,,,,,,,,,0,9,9,16,1,,,,,,,,,,,,,,,,,,
,,,,,,,,Cascade,2,Female,Hispanic/Latino,NA,2024-12-12_13h18.10.435,dissOSARI,2023.2.3,Win32,60.97560976,,,,,,,,,,,,,,,,,,,,,,,,,,,,,,,,360.3711,361.5386,361.5386,362.5393,,,,,,1,0.5,,,,,,,,,,,,,,,,,,,,,,,,,,,,,,,,,,,,,,,,,,,,,,,,,,,,,0,10,10,71,1,,,,,,,,,,,,,,,,,,
,,,,,,,,Cascade,2,Female,Hispanic/Latino,NA,2024-12-12_13h18.10.435,dissOSARI,2023.2.3,Win32,60.97560976,,,,,,,,,,,,,,,,,,,,,,,,,,,,,,,,362.5395,363.5402,363.5402,364.5406,,,,,,0,0.5,,,,,,,,,,,,,,,,,,,,,,,,,,,,,,,,,,,,,,,,,,,,,,,,,,,,,0,11,11,24,1,,,,,,,,,,,,,,,,,,
,,,,,,,,Cascade,2,Female,Hispanic/Latino,NA,2024-12-12_13h18.10.435,dissOSARI,2023.2.3,Win32,60.97560976,,,,,,,,,,,,,,,,,,,,,,,,,,,,,,,,364.5409,365.6419,365.6419,366.6385,,,,,,1,0.5,,,,,,,,,,,,,,,,,,,,,,,,,,,,,,,,,,,,,,,,,,,,,,,,,,,,,0,12,12,76,1,,,,,,,,,,,,,,,,,,
,,,,,,,,Cascade,2,Female,Hispanic/Latino,NA,2024-12-12_13h18.10.435,dissOSARI,2023.2.3,Win32,60.97560976,,,,,,,,,,,,,,,,,,,,,,,,,,,,,,,,366.6388,367.7606,367.7607,368.7572,,,,,,0,0.5,,,,,,,,,,,,,,,,,,,,,,,,,,,,,,,,,,,,,,,,,,,,,,,,,,,,,0,13,13,49,1,,,,,,,,,,,,,,,,,,
,,,,,,,,Cascade,2,Female,Hispanic/Latino,NA,2024-12-12_13h18.10.435,dissOSARI,2023.2.3,Win32,60.97560976,,,,,,,,,,,,,,,,,,,,,,,,,,,,,,,,368.7575,369.6289,369.6289,370.6286,,,,,,0,0.5,,,,,,,,,,,,,,,,,,,,,,,,,,,,,,,,,,,,,,,,,,,,,,,,,,,,,0,14,14,23,1,,,,,,,,,,,,,,,,,,
,,,,,,,,Cascade,2,Female,Hispanic/Latino,NA,2024-12-12_13h18.10.435,dissOSARI,2023.2.3,Win32,60.97560976,,,,,,,,,,,,,,,,,,,,,,,,,,,,,,,,370.6289,371.4632,371.4632,372.4637,,,,,,0,0.5,,,,,,,,,,,,,,,,,,,,,,,,,,,,,,,,,,,,,,,,,,,,,,,,,,,,,0,15,15,53,1,,,,,,,,,,,,,,,,,,
,,,,,,,,Cascade,2,Female,Hispanic/Latino,NA,2024-12-12_13h18.10.435,dissOSARI,2023.2.3,Win32,60.97560976,,,,,,,,,,,,,,,,,,,,,,,,,,,,,,,,372.4638,373.4814,373.4815,374.4782,,,,,,1,0.5,,,,,,,,,,,,,,,,,,,,,,,,,,,,,,,,,,,,,,,,,,,,,,,,,,,,,0,16,16,74,1,,,,,,,,,,,,,,,,,,
,,,,,,,,Cascade,2,Female,Hispanic/Latino,NA,2024-12-12_13h18.10.435,dissOSARI,2023.2.3,Win32,60.97560976,,,,,,,,,,,,,,,,,,,,,,,,,,,,,,,,374.4783,375.5173,375.5173,376.5137,,,,,,0,0.5,,,,,,,,,,,,,,,,,,,,,,,,,,,,,,,,,,,,,,,,,,,,,,,,,,,,,0,17,17,13,1,,,,,,,,,,,,,,,,,,
,,,,,,,,Cascade,2,Female,Hispanic/Latino,NA,2024-12-12_13h18.10.435,dissOSARI,2023.2.3,Win32,60.97560976,,,,,,,,,,,,,,,,,,,,,,,,,,,,,,,,376.5139,377.3852,377.3852,378.3855,,,,,,0,0.5,,,,,,,,,,,,,,,,,,,,,,,,,,,,,,,,,,,,,,,,,,,,,,,,,,,,,0,18,18,29,1,,,,,,,,,,,,,,,,,,
,,,,,,,,Cascade,2,Female,Hispanic/Latino,NA,2024-12-12_13h18.10.435,dissOSARI,2023.2.3,Win32,60.97560976,,,,,,,,,,,,,,,,,,,,,,,,,,,,,,,,378.3858,379.4033,379.4033,380.404,,,,,,1,0.5,,,,,,,,,,,,,,,,,,,,,,,,,,,,,,,,,,,,,,,,,,,,,,,,,,,,,0,19,19,68,1,,,,,,,,,,,,,,,,,,
,,,,,,,,Cascade,2,Female,Hispanic/Latino,NA,2024-12-12_13h18.10.435,dissOSARI,2023.2.3,Win32,60.97560976,,,,,,,,,,,,,,,,,,,,,,,,,,,,,,,,380.4042,381.3719,381.372,382.3722,,,,,,0,0.5,,,,,,,,,,,,,,,,,,,,,,,,,,,,,,,,,,,,,,,,,,,,,,,,,,,,,0,20,20,57,1,,,,,,,,,,,,,,,,,,
,,,,,,,,Cascade,2,Female,Hispanic/Latino,NA,2024-12-12_13h18.10.435,dissOSARI,2023.2.3,Win32,60.97560976,,,,,,,,,,,,,,,,,,,,,,,,,,,,,,,,382.3724,383.3905,383.3905,384.3905,,,,,,1,0.5,,,,,,,,,,,,,,,,,,,,,,,,,,,,,,,,,,,,,,,,,,,,,,,,,,,,,0,21,21,63,1,,,,,,,,,,,,,,,,,,
,,,,,,,,Cascade,2,Female,Hispanic/Latino,NA,2024-12-12_13h18.10.435,dissOSARI,2023.2.3,Win32,60.97560976,,,,,,,,,,,,,,,,,,,,,,,,,,,,,,,,384.3908,385.7094,385.7095,386.7059,,,,,,1,0.5,,,,,,,,,,,,,,,,,,,,,,,,,,,,,,,,,,,,,,,,,,,,,,,,,,,,,0,22,22,72,1,,,,,,,,,,,,,,,,,,
,,,,,,,,Cascade,2,Female,Hispanic/Latino,NA,2024-12-12_13h18.10.435,dissOSARI,2023.2.3,Win32,60.97560976,,,,,,,,,,,,,,,,,,,,,,,,,,,,,,,,386.7062,387.8442,387.8443,388.8438,,,,,,0,0.5,,,,,,,,,,,,,,,,,,,,,,,,,,,,,,,,,,,,,,,,,,,,,,,,,,,,,0,23,23,50,1,,,,,,,,,,,,,,,,,,
,,,,,,,,Cascade,2,Female,Hispanic/Latino,NA,2024-12-12_13h18.10.435,dissOSARI,2023.2.3,Win32,60.97560976,,,,,,,,,,,,,,,,,,,,,,,,,,,,,,,,388.8441,389.6622,389.6622,390.6623,,,,,,0,0.5,,,,,,,,,,,,,,,,,,,,,,,,,,,,,,,,,,,,,,,,,,,,,,,,,,,,,0,24,24,58,1,,,,,,,,,,,,,,,,,,
,,,,,,,,Cascade,2,Female,Hispanic/Latino,NA,2024-12-12_13h18.10.435,dissOSARI,2023.2.3,Win32,60.97560976,,,,,,,,,,,,,,,,,,,,,,,,,,,,,,,,390.6625,391.4472,391.4472,392.4469,,,,,,0,0.5,,,,,,,,,,,,,,,,,,,,,,,,,,,,,,,,,,,,,,,,,,,,,,,,,,,,,0,25,25,35,1,,,,,,,,,,,,,,,,,,
,,,,,,,,Cascade,2,Female,Hispanic/Latino,NA,2024-12-12_13h18.10.435,dissOSARI,2023.2.3,Win32,60.97560976,,,,,,,,,,,,,,,,,,,,,,,,,,,,,,,,392.447,393.2809,393.2809,394.2817,,,,,,0,0.5,,,,,,,,,,,,,,,,,,,,,,,,,,,,,,,,,,,,,,,,,,,,,,,,,,,,,0,26,26,7,1,,,,,,,,,,,,,,,,,,
,,,,,,,,Cascade,2,Female,Hispanic/Latino,NA,2024-12-12_13h18.10.435,dissOSARI,2023.2.3,Win32,60.97560976,,,,,,,,,,,,,,,,,,,,,,,,,,,,,,,,394.2819,395.1169,395.1169,396.1156,,,,,,0,0.5,,,,,,,,,,,,,,,,,,,,,,,,,,,,,,,,,,,,,,,,,,,,,,,,,,,,,0,27,27,4,1,,,,,,,,,,,,,,,,,,
,,,,,,,,Cascade,2,Female,Hispanic/Latino,NA,2024-12-12_13h18.10.435,dissOSARI,2023.2.3,Win32,60.97560976,,,,,,,,,,,,,,,,,,,,,,,,,,,,,,,,396.1158,396.9513,396.9513,397.9475,,,,,,0,0.5,,,,,,,,,,,,,,,,,,,,,,,,,,,,,,,,,,,,,,,,,,,,,,,,,,,,,0,28,28,32,1,,,,,,,,,,,,,,,,,,
,,,,,,,,Cascade,2,Female,Hispanic/Latino,NA,2024-12-12_13h18.10.435,dissOSARI,2023.2.3,Win32,60.97560976,,,,,,,,,,,,,,,,,,,,,,,,,,,,,,,,397.9477,398.803,398.803,399.7996,,,,,,0,0.5,,,,,,,,,,,,,,,,,,,,,,,,,,,,,,,,,,,,,,,,,,,,,,,,,,,,,0,29,29,33,1,,,,,,,,,,,,,,,,,,
,,,,,,,,Cascade,2,Female,Hispanic/Latino,NA,2024-12-12_13h18.10.435,dissOSARI,2023.2.3,Win32,60.97560976,,,,,,,,,,,,,,,,,,,,,,,,,,,,,,,,399.8,400.8219,400.8219,401.8177,,,,,,1,0.5,,,,,,,,,,,,,,,,,,,,,,,,,,,,,,,,,,,,,,,,,,,,,,,,,,,,,0,30,30,67,1,,,,,,,,,,,,,,,,,,
,,,,,,,,Cascade,2,Female,Hispanic/Latino,NA,2024-12-12_13h18.10.435,dissOSARI,2023.2.3,Win32,60.97560976,,,,,,,,,,,,,,,,,,,,,,,,,,,,,,,,401.818,402.8061,402.8062,403.8027,,,,,,0,0.5,,,,,,,,,,,,,,,,,,,,,,,,,,,,,,,,,,,,,,,,,,,,,,,,,,,,,0,31,31,56,1,,,,,,,,,,,,,,,,,,
,,,,,,,,Cascade,2,Female,Hispanic/Latino,NA,2024-12-12_13h18.10.435,dissOSARI,2023.2.3,Win32,60.97560976,,,,,,,,,,,,,,,,,,,,,,,,,,,,,,,,403.803,404.8246,404.8246,405.8249,,,,,,1,0.5,,,,,,,,,,,,,,,,,,,,,,,,,,,,,,,,,,,,,,,,,,,,,,,,,,,,,0,32,32,78,1,,,,,,,,,,,,,,,,,,
,,,,,,,,Cascade,2,Female,Hispanic/Latino,NA,2024-12-12_13h18.10.435,dissOSARI,2023.2.3,Win32,60.97560976,,,,,,,,,,,,,,,,,,,,,,,,,,,,,,,,405.8252,406.9428,406.9429,407.9394,,,,,,0,0.5,,,,,,,,,,,,,,,,,,,,,,,,,,,,,,,,,,,,,,,,,,,,,,,,,,,,,0,33,33,52,1,,,,,,,,,,,,,,,,,,
,,,,,,,,Cascade,2,Female,Hispanic/Latino,NA,2024-12-12_13h18.10.435,dissOSARI,2023.2.3,Win32,60.97560976,,,,,,,,,,,,,,,,,,,,,,,,,,,,,,,,407.9397,408.7446,408.7446,409.7443,,,,,,0,0.5,,,,,,,,,,,,,,,,,,,,,,,,,,,,,,,,,,,,,,,,,,,,,,,,,,,,,0,34,34,31,1,,,,,,,,,,,,,,,,,,
,,,,,,,,Cascade,2,Female,Hispanic/Latino,NA,2024-12-12_13h18.10.435,dissOSARI,2023.2.3,Win32,60.97560976,,,,,,,,,,,,,,,,,,,,,,,,,,,,,,,,409.7444,410.563,410.563,411.5625,,,,,,0,0.5,,,,,,,,,,,,,,,,,,,,,,,,,,,,,,,,,,,,,,,,,,,,,,,,,,,,,0,35,35,22,1,,,,,,,,,,,,,,,,,,
,,,,,,,,Cascade,2,Female,Hispanic/Latino,NA,2024-12-12_13h18.10.435,dissOSARI,2023.2.3,Win32,60.97560976,,,,,,,,,,,,,,,,,,,,,,,,,,,,,,,,411.5626,412.5806,412.5806,413.5816,,,,,,1,0.5,,,,,,,,,,,,,,,,,,,,,,,,,,,,,,,,,,,,,,,,,,,,,,,,,,,,,0,36,36,79,1,,,,,,,,,,,,,,,,,,
,,,,,,,,Cascade,2,Female,Hispanic/Latino,NA,2024-12-12_13h18.10.435,dissOSARI,2023.2.3,Win32,60.97560976,,,,,,,,,,,,,,,,,,,,,,,,,,,,,,,,413.5819,414.6158,414.6158,415.6124,,,,,,0,0.5,,,,,,,,,,,,,,,,,,,,,,,,,,,,,,,,,,,,,,,,,,,,,,,,,,,,,0,37,37,1,1,,,,,,,,,,,,,,,,,,
,,,,,,,,Cascade,2,Female,Hispanic/Latino,NA,2024-12-12_13h18.10.435,dissOSARI,2023.2.3,Win32,60.97560976,,,,,,,,,,,,,,,,,,,,,,,,,,,,,,,,415.6126,416.4,416.4,417.4012,,,,,,1,0.5,,,,,,,,,,,,,,,,,,,,,,,,,,,,,,,,,,,,,,,,,,,,,,,,,,,,,0,38,38,62,1,,,,,,,,,,,,,,,,,,
,,,,,,,,Cascade,2,Female,Hispanic/Latino,NA,2024-12-12_13h18.10.435,dissOSARI,2023.2.3,Win32,60.97560976,,,,,,,,,,,,,,,,,,,,,,,,,,,,,,,,417.4015,418.2529,418.2529,419.249,,,,,,0,0.5,,,,,,,,,,,,,,,,,,,,,,,,,,,,,,,,,,,,,,,,,,,,,,,,,,,,,0,39,39,14,1,,,,,,,,,,,,,,,,,,
,,,,,,,,Cascade,2,Female,Hispanic/Latino,NA,2024-12-12_13h18.10.435,dissOSARI,2023.2.3,Win32,60.97560976,,,,,,,,,,,,,,,,,,,,,,,,,,,,,,,,419.2496,420.2705,420.2706,421.2707,,,,,,1,0.5,,,,,,,,,,,,,,,,,,,,,,,,,,,,,,,,,,,,,,,,,,,,,,,,,,,,,0,40,40,77,1,,,,,,,,,,,,,,,,,,
,,,,,,,,Cascade,2,Female,Hispanic/Latino,NA,2024-12-12_13h18.10.435,dissOSARI,2023.2.3,Win32,60.97560976,,,,,,,,,,,,,,,,,,,,,,,,,,,,,,,,421.2709,422.1725,422.1725,423.1717,,,,,,0,0.5,,,,,,,,,,,,,,,,,,,,,,,,,,,,,,,,,,,,,,,,,,,,,,,,,,,,,0,41,41,17,1,,,,,,,,,,,,,,,,,,
,,,,,,,,Cascade,2,Female,Hispanic/Latino,NA,2024-12-12_13h18.10.435,dissOSARI,2023.2.3,Win32,60.97560976,,,,,,,,,,,,,,,,,,,,,,,,,,,,,,,,423.1719,424.1899,424.1899,425.1868,,,,,,1,0.5,,,,,,,,,,,,,,,,,,,,,,,,,,,,,,,,,,,,,,,,,,,,,,,,,,,,,0,42,42,61,1,,,,,,,,,,,,,,,,,,
,,,,,,,,Cascade,2,Female,Hispanic/Latino,NA,2024-12-12_13h18.10.435,dissOSARI,2023.2.3,Win32,60.97560976,,,,,,,,,,,,,,,,,,,,,,,,,,,,,,,,425.1871,426.2251,426.2251,427.2222,,,,,,0,0.5,,,,,,,,,,,,,,,,,,,,,,,,,,,,,,,,,,,,,,,,,,,,,,,,,,,,,0,43,43,6,1,,,,,,,,,,,,,,,,,,
,,,,,,,,Cascade,2,Female,Hispanic/Latino,NA,2024-12-12_13h18.10.435,dissOSARI,2023.2.3,Win32,60.97560976,,,,,,,,,,,,,,,,,,,,,,,,,,,,,,,,427.2224,428.1453,428.1453,429.1442,,,,,,0,0.5,,,,,,,,,,,,,,,,,,,,,,,,,,,,,,,,,,,,,,,,,,,,,,,,,,,,,0,44,44,19,1,,,,,,,,,,,,,,,,,,
,,,,,,,,Cascade,2,Female,Hispanic/Latino,NA,2024-12-12_13h18.10.435,dissOSARI,2023.2.3,Win32,60.97560976,,,,,,,,,,,,,,,,,,,,,,,,,,,,,,,,429.1444,430.0285,430.0286,431.0253,,,,,,0,0.5,,,,,,,,,,,,,,,,,,,,,,,,,,,,,,,,,,,,,,,,,,,,,,,,,,,,,0,45,45,9,1,,,,,,,,,,,,,,,,,,
,,,,,,,,Cascade,2,Female,Hispanic/Latino,NA,2024-12-12_13h18.10.435,dissOSARI,2023.2.3,Win32,60.97560976,,,,,,,,,,,,,,,,,,,,,,,,,,,,,,,,431.0256,431.897,431.8971,432.8968,,,,,,0,0.5,,,,,,,,,,,,,,,,,,,,,,,,,,,,,,,,,,,,,,,,,,,,,,,,,,,,,0,46,46,37,1,,,,,,,,,,,,,,,,,,
,,,,,,,,Cascade,2,Female,Hispanic/Latino,NA,2024-12-12_13h18.10.435,dissOSARI,2023.2.3,Win32,60.97560976,,,,,,,,,,,,,,,,,,,,,,,,,,,,,,,,432.897,433.9156,433.9156,434.9159,,,,,,1,0.5,,,,,,,,,,,,,,,,,,,,,,,,,,,,,,,,,,,,,,,,,,,,,,,,,,,,,0,47,47,75,1,,,,,,,,,,,,,,,,,,
,,,,,,,,Cascade,2,Female,Hispanic/Latino,NA,2024-12-12_13h18.10.435,dissOSARI,2023.2.3,Win32,60.97560976,,,,,,,,,,,,,,,,,,,,,,,,,,,,,,,,434.9161,435.7498,435.7498,436.7504,,,,,,0,0.5,,,,,,,,,,,,,,,,,,,,,,,,,,,,,,,,,,,,,,,,,,,,,,,,,,,,,0,48,48,41,1,,,,,,,,,,,,,,,,,,
,,,,,,,,Cascade,2,Female,Hispanic/Latino,NA,2024-12-12_13h18.10.435,dissOSARI,2023.2.3,Win32,60.97560976,,,,,,,,,,,,,,,,,,,,,,,,,,,,,,,,436.7507,437.7691,437.7691,438.7687,,,,,,1,0.5,,,,,,,,,,,,,,,,,,,,,,,,,,,,,,,,,,,,,,,,,,,,,,,,,,,,,0,49,49,69,1,,,,,,,,,,,,,,,,,,
,,,,,,,,Cascade,2,Female,Hispanic/Latino,NA,2024-12-12_13h18.10.435,dissOSARI,2023.2.3,Win32,60.97560976,,,,,,,,,,,,,,,,,,,,,,,,,,,,,,,,438.769,439.82,439.8201,440.8204,,,,,,1,0.5,,,,,,,,,,,,,,,,,,,,,,,,,,,,,,,,,,,,,,,,,,,,,,,,,,,,,0,50,50,65,1,,,,,,,,,,,,,,,,,,
,,,,,,,,Cascade,2,Female,Hispanic/Latino,NA,2024-12-12_13h18.10.435,dissOSARI,2023.2.3,Win32,60.97560976,,,,,,,,,,,,,,,,,,,,,,,,,,,,,,,,440.8208,442.0724,442.0724,443.0686,,,,,,0,0.5,,,,,,,,,,,,,,,,,,,,,,,,,,,,,,,,,,,,,,,,,,,,,,,,,,,,,0,51,51,54,1,,,,,,,,,,,,,,,,,,
,,,,,,,,Cascade,2,Female,Hispanic/Latino,NA,2024-12-12_13h18.10.435,dissOSARI,2023.2.3,Win32,60.97560976,,,,,,,,,,,,,,,,,,,,,,,,,,,,,,,,443.069,444.0742,444.0742,445.0742,,,,,,0,0.5,,,,,,,,,,,,,,,,,,,,,,,,,,,,,,,,,,,,,,,,,,,,,,,,,,,,,0,52,52,38,1,,,,,,,,,,,,,,,,,,
,,,,,,,,Cascade,2,Female,Hispanic/Latino,NA,2024-12-12_13h18.10.435,dissOSARI,2023.2.3,Win32,60.97560976,,,,,,,,,,,,,,,,,,,,,,,,,,,,,,,,445.0744,445.926,445.926,446.9258,,,,,,0,0.5,,,,,,,,,,,,,,,,,,,,,,,,,,,,,,,,,,,,,,,,,,,,,,,,,,,,,0,53,53,46,1,,,,,,,,,,,,,,,,,,
,,,,,,,,Cascade,2,Female,Hispanic/Latino,NA,2024-12-12_13h18.10.435,dissOSARI,2023.2.3,Win32,60.97560976,,,,,,,,,,,,,,,,,,,,,,,,,,,,,,,,446.9259,447.761,447.761,448.7567,,,,,,0,0.5,,,,,,,,,,,,,,,,,,,,,,,,,,,,,,,,,,,,,,,,,,,,,,,,,,,,,0,54,54,51,1,,,,,,,,,,,,,,,,,,
,,,,,,,,Cascade,2,Female,Hispanic/Latino,NA,2024-12-12_13h18.10.435,dissOSARI,2023.2.3,Win32,60.97560976,,,,,,,,,,,,,,,,,,,,,,,,,,,,,,,,448.757,449.629,449.629,450.6288,,,,,,0,0.5,,,,,,,,,,,,,,,,,,,,,,,,,,,,,,,,,,,,,,,,,,,,,,,,,,,,,0,55,55,11,1,,,,,,,,,,,,,,,,,,
,,,,,,,,Cascade,2,Female,Hispanic/Latino,NA,2024-12-12_13h18.10.435,dissOSARI,2023.2.3,Win32,60.97560976,,,,,,,,,,,,,,,,,,,,,,,,,,,,,,,,450.629,451.4795,451.4796,452.4798,,,,,,0,0.5,,,,,,,,,,,,,,,,,,,,,,,,,,,,,,,,,,,,,,,,,,,,,,,,,,,,,0,56,56,5,1,,,,,,,,,,,,,,,,,,
,,,,,,,,Cascade,2,Female,Hispanic/Latino,NA,2024-12-12_13h18.10.435,dissOSARI,2023.2.3,Win32,60.97560976,,,,,,,,,,,,,,,,,,,,,,,,,,,,,,,,452.48,453.281,453.281,454.2814,,,,,,0,0.5,,,,,,,,,,,,,,,,,,,,,,,,,,,,,,,,,,,,,,,,,,,,,,,,,,,,,0,57,57,43,1,,,,,,,,,,,,,,,,,,
,,,,,,,,Cascade,2,Female,Hispanic/Latino,NA,2024-12-12_13h18.10.435,dissOSARI,2023.2.3,Win32,60.97560976,,,,,,,,,,,,,,,,,,,,,,,,,,,,,,,,454.2816,455.1327,455.1328,456.1292,,,,,,0,0.5,,,,,,,,,,,,,,,,,,,,,,,,,,,,,,,,,,,,,,,,,,,,,,,,,,,,,0,58,58,3,1,,,,,,,,,,,,,,,,,,
,,,,,,,,Cascade,2,Female,Hispanic/Latino,NA,2024-12-12_13h18.10.435,dissOSARI,2023.2.3,Win32,60.97560976,,,,,,,,,,,,,,,,,,,,,,,,,,,,,,,,456.1296,457.0182,457.0182,458.0139,,,,,,0,0.5,,,,,,,,,,,,,,,,,,,,,,,,,,,,,,,,,,,,,,,,,,,,,,,,,,,,,0,59,59,55,1,,,,,,,,,,,,,,,,,,
,,,,,,,,Cascade,2,Female,Hispanic/Latino,NA,2024-12-12_13h18.10.435,dissOSARI,2023.2.3,Win32,60.97560976,,,,,,,,,,,,,,,,,,,,,,,,,,,,,,,,458.0141,458.8355,458.8355,459.8325,,,,,,0,0.5,,,,,,,,,,,,,,,,,,,,,,,,,,,,,,,,,,,,,,,,,,,,,,,,,,,,,0,60,60,36,1,,,,,,,,,,,,,,,,,,
,,,,,,,,Cascade,2,Female,Hispanic/Latino,NA,2024-12-12_13h18.10.435,dissOSARI,2023.2.3,Win32,60.97560976,,,,,,,,,,,,,,,,,,,,,,,,,,,,,,,,459.8328,460.7044,460.7045,461.7046,,,,,,0,0.5,,,,,,,,,,,,,,,,,,,,,,,,,,,,,,,,,,,,,,,,,,,,,,,,,,,,,0,61,61,26,1,,,,,,,,,,,,,,,,,,
,,,,,,,,Cascade,2,Female,Hispanic/Latino,NA,2024-12-12_13h18.10.435,dissOSARI,2023.2.3,Win32,60.97560976,,,,,,,,,,,,,,,,,,,,,,,,,,,,,,,,461.7048,462.5232,462.5232,463.5189,,,,,,0,0.5,,,,,,,,,,,,,,,,,,,,,,,,,,,,,,,,,,,,,,,,,,,,,,,,,,,,,0,62,62,45,1,,,,,,,,,,,,,,,,,,
,,,,,,,,Cascade,2,Female,Hispanic/Latino,NA,2024-12-12_13h18.10.435,dissOSARI,2023.2.3,Win32,60.97560976,,,,,,,,,,,,,,,,,,,,,,,,,,,,,,,,463.5192,464.4078,464.4079,465.4038,,,,,,0,0.5,,,,,,,,,,,,,,,,,,,,,,,,,,,,,,,,,,,,,,,,,,,,,,,,,,,,,0,63,63,28,1,,,,,,,,,,,,,,,,,,
,,,,,,,,Cascade,2,Female,Hispanic/Latino,NA,2024-12-12_13h18.10.435,dissOSARI,2023.2.3,Win32,60.97560976,,,,,,,,,,,,,,,,,,,,,,,,,,,,,,,,465.4041,466.1762,466.1762,467.1758,,,,,,0,0.5,,,,,,,,,,,,,,,,,,,,,,,,,,,,,,,,,,,,,,,,,,,,,,,,,,,,,0,64,64,0,1,,,,,,,,,,,,,,,,,,
,,,,,,,,Cascade,2,Female,Hispanic/Latino,NA,2024-12-12_13h18.10.435,dissOSARI,2023.2.3,Win32,60.97560976,,,,,,,,,,,,,,,,,,,,,,,,,,,,,,,,467.1761,467.9601,467.9601,468.9568,,,,,,1,0.5,,,,,,,,,,,,,,,,,,,,,,,,,,,,,,,,,,,,,,,,,,,,,,,,,,,,,0,65,65,66,1,,,,,,,,,,,,,,,,,,
,,,,,,,,Cascade,2,Female,Hispanic/Latino,NA,2024-12-12_13h18.10.435,dissOSARI,2023.2.3,Win32,60.97560976,,,,,,,,,,,,,,,,,,,,,,,,,,,,,,,,468.957,469.7611,469.7611,470.7581,,,,,,0,0.5,,,,,,,,,,,,,,,,,,,,,,,,,,,,,,,,,,,,,,,,,,,,,,,,,,,,,0,66,66,59,1,,,,,,,,,,,,,,,,,,
,,,,,,,,Cascade,2,Female,Hispanic/Latino,NA,2024-12-12_13h18.10.435,dissOSARI,2023.2.3,Win32,60.97560976,,,,,,,,,,,,,,,,,,,,,,,,,,,,,,,,470.7586,471.5806,471.5806,472.5794,,,,,,0,0.5,,,,,,,,,,,,,,,,,,,,,,,,,,,,,,,,,,,,,,,,,,,,,,,,,,,,,0,67,67,10,1,,,,,,,,,,,,,,,,,,
,,,,,,,,Cascade,2,Female,Hispanic/Latino,NA,2024-12-12_13h18.10.435,dissOSARI,2023.2.3,Win32,60.97560976,,,,,,,,,,,,,,,,,,,,,,,,,,,,,,,,472.5795,473.5973,473.5973,474.5985,,,,,,1,0.5,,,,,,,,,,,,,,,,,,,,,,,,,,,,,,,,,,,,,,,,,,,,,,,,,,,,,0,68,68,70,1,,,,,,,,,,,,,,,,,,
,,,,,,,,Cascade,2,Female,Hispanic/Latino,NA,2024-12-12_13h18.10.435,dissOSARI,2023.2.3,Win32,60.97560976,,,,,,,,,,,,,,,,,,,,,,,,,,,,,,,,474.5987,476.2673,476.2673,477.2636,,,,,,0,0.5,,,,,,,,,,,,,,,,,,,,,,,,,,,,,,,,,,,,,,,,,,,,,,,,,,,,,0,69,69,2,1,,,,,,,,,,,,,,,,,,
,,,,,,,,Cascade,2,Female,Hispanic/Latino,NA,2024-12-12_13h18.10.435,dissOSARI,2023.2.3,Win32,60.97560976,,,,,,,,,,,,,,,,,,,,,,,,,,,,,,,,477.2639,478.3688,478.3688,479.3652,,,,,,0,0.5,,,,,,,,,,,,,,,,,,,,,,,,,,,,,,,,,,,,,,,,,,,,,,,,,,,,,0,70,70,8,1,,,,,,,,,,,,,,,,,,
,,,,,,,,Cascade,2,Female,Hispanic/Latino,NA,2024-12-12_13h18.10.435,dissOSARI,2023.2.3,Win32,60.97560976,,,,,,,,,,,,,,,,,,,,,,,,,,,,,,,,479.3655,480.6706,480.6706,481.6671,,,,,,0,0.5,,,,,,,,,,,,,,,,,,,,,,,,,,,,,,,,,,,,,,,,,,,,,,,,,,,,,0,71,71,34,1,,,,,,,,,,,,,,,,,,
,,,,,,,,Cascade,2,Female,Hispanic/Latino,NA,2024-12-12_13h18.10.435,dissOSARI,2023.2.3,Win32,60.97560976,,,,,,,,,,,,,,,,,,,,,,,,,,,,,,,,481.6674,482.4893,482.4893,483.4893,,,,,,0,0.5,,,,,,,,,,,,,,,,,,,,,,,,,,,,,,,,,,,,,,,,,,,,,,,,,,,,,0,72,72,25,1,,,,,,,,,,,,,,,,,,
,,,,,,,,Cascade,2,Female,Hispanic/Latino,NA,2024-12-12_13h18.10.435,dissOSARI,2023.2.3,Win32,60.97560976,,,,,,,,,,,,,,,,,,,,,,,,,,,,,,,,483.4896,484.5572,484.5572,485.5568,,,,,,1,0.5,,,,,,,,,,,,,,,,,,,,,,,,,,,,,,,,,,,,,,,,,,,,,,,,,,,,,0,73,73,73,1,,,,,,,,,,,,,,,,,,
,,,,,,,,Cascade,2,Female,Hispanic/Latino,NA,2024-12-12_13h18.10.435,dissOSARI,2023.2.3,Win32,60.97560976,,,,,,,,,,,,,,,,,,,,,,,,,,,,,,,,485.5569,486.8258,486.8258,487.8254,,,,,,1,0.5,,,,,,,,,,,,,,,,,,,,,,,,,,,,,,,,,,,,,,,,,,,,,,,,,,,,,0,74,74,60,1,,,,,,,,,,,,,,,,,,
,,,,,,,,Cascade,2,Female,Hispanic/Latino,NA,2024-12-12_13h18.10.435,dissOSARI,2023.2.3,Win32,60.97560976,,,,,,,,,,,,,,,,,,,,,,,,,,,,,,,,487.8257,488.9107,488.9107,489.911,,,,,,0,0.5,,,,,,,,,,,,,,,,,,,,,,,,,,,,,,,,,,,,,,,,,,,,,,,,,,,,,0,75,75,30,1,,,,,,,,,,,,,,,,,,
,,,,,,,,Cascade,2,Female,Hispanic/Latino,NA,2024-12-12_13h18.10.435,dissOSARI,2023.2.3,Win32,60.97560976,,,,,,,,,,,,,,,,,,,,,,,,,,,,,,,,489.9111,490.7631,490.7632,491.7628,,,,,,0,0.5,,,,,,,,,,,,,,,,,,,,,,,,,,,,,,,,,,,,,,,,,,,,,,,,,,,,,0,76,76,20,1,,,,,,,,,,,,,,,,,,
,,,,,,,,Cascade,2,Female,Hispanic/Latino,NA,2024-12-12_13h18.10.435,dissOSARI,2023.2.3,Win32,60.97560976,,,,,,,,,,,,,,,,,,,,,,,,,,,,,,,,491.7629,492.6474,492.6474,493.6474,,,,,,0,0.5,,,,,,,,,,,,,,,,,,,,,,,,,,,,,,,,,,,,,,,,,,,,,,,,,,,,,0,77,77,40,1,,,,,,,,,,,,,,,,,,
,,,,,,,,Cascade,2,Female,Hispanic/Latino,NA,2024-12-12_13h18.10.435,dissOSARI,2023.2.3,Win32,60.97560976,,,,,,,,,,,,,,,,,,,,,,,,,,,,,,,,493.6476,494.4492,494.4492,495.4489,,,,,,0,0.5,,,,,,,,,,,,,,,,,,,,,,,,,,,,,,,,,,,,,,,,,,,,,,,,,,,,,0,78,78,39,1,,,,,,,,,,,,,,,,,,
,,,,,,,,Cascade,2,Female,Hispanic/Latino,NA,2024-12-12_13h18.10.435,dissOSARI,2023.2.3,Win32,60.97560976,,,,,,,,,,,,,,,,,,,,,,,,,,,,,,,,495.449,496.2504,496.2505,497.2468,,,,,,0,0.5,,,,,,,,,,,,,,,,,,,,,,,,,,,,,,,,,,,,,,,,,,,,,,,,,,,,,0,79,79,42,1,,,,,,,,,,,,,,,,,,
,,,,,,,,Cascade,2,Female,Hispanic/Latino,NA,2024-12-12_13h18.10.435,dissOSARI,2023.2.3,Win32,60.97560976,,,,,,,,,,,,,,,,,,,,,,,,,,,,,,,,595.9337,598.1679,598.1679,599.1681,,,,,,1,0.5,,,,,,,,,,,,,,,,,,,,,,,,,,,,,,,,,,,,,,,,,,,,,,,,,,,497.2471,595.9324,0,0,0,70,1,,,,,,,,,,,,,,,,,,
,,,,,,,,Cascade,2,Female,Hispanic/Latino,NA,2024-12-12_13h18.10.435,dissOSARI,2023.2.3,Win32,60.97560976,,,,,,,,,,,,,,,,,,,,,,,,,,,,,,,,599.1684,600.1191,600.1192,601.1157,,,,,,0,0.5,,,,,,,,,,,,,,,,,,,,,,,,,,,,,,,,,,,,,,,,,,,,,,,,,,,,,0,1,1,17,1,,,,,,,,,,,,,,,,,,
,,,,,,,,Cascade,2,Female,Hispanic/Latino,NA,2024-12-12_13h18.10.435,dissOSARI,2023.2.3,Win32,60.97560976,,,,,,,,,,,,,,,,,,,,,,,,,,,,,,,,601.116,601.9544,601.9544,602.9504,,,,,,0,0.5,,,,,,,,,,,,,,,,,,,,,,,,,,,,,,,,,,,,,,,,,,,,,,,,,,,,,0,2,2,57,1,,,,,,,,,,,,,,,,,,
,,,,,,,,Cascade,2,Female,Hispanic/Latino,NA,2024-12-12_13h18.10.435,dissOSARI,2023.2.3,Win32,60.97560976,,,,,,,,,,,,,,,,,,,,,,,,,,,,,,,,602.9506,603.7568,603.7568,604.7559,,,,,,0,0.5,,,,,,,,,,,,,,,,,,,,,,,,,,,,,,,,,,,,,,,,,,,,,,,,,,,,,0,3,3,39,1,,,,,,,,,,,,,,,,,,
,,,,,,,,Cascade,2,Female,Hispanic/Latino,NA,2024-12-12_13h18.10.435,dissOSARI,2023.2.3,Win32,60.97560976,,,,,,,,,,,,,,,,,,,,,,,,,,,,,,,,604.7562,605.5743,605.5744,606.5743,,,,,,0,0.5,,,,,,,,,,,,,,,,,,,,,,,,,,,,,,,,,,,,,,,,,,,,,,,,,,,,,0,4,4,50,1,,,,,,,,,,,,,,,,,,
,,,,,,,,Cascade,2,Female,Hispanic/Latino,NA,2024-12-12_13h18.10.435,dissOSARI,2023.2.3,Win32,60.97560976,,,,,,,,,,,,,,,,,,,,,,,,,,,,,,,,606.5746,607.3754,607.3754,608.3759,,,,,,0,0.5,,,,,,,,,,,,,,,,,,,,,,,,,,,,,,,,,,,,,,,,,,,,,,,,,,,,,0,5,5,36,1,,,,,,,,,,,,,,,,,,
,,,,,,,,Cascade,2,Female,Hispanic/Latino,NA,2024-12-12_13h18.10.435,dissOSARI,2023.2.3,Win32,60.97560976,,,,,,,,,,,,,,,,,,,,,,,,,,,,,,,,608.3762,609.2272,609.2273,610.2237,,,,,,0,0.5,,,,,,,,,,,,,,,,,,,,,,,,,,,,,,,,,,,,,,,,,,,,,,,,,,,,,0,6,6,49,1,,,,,,,,,,,,,,,,,,
,,,,,,,,Cascade,2,Female,Hispanic/Latino,NA,2024-12-12_13h18.10.435,dissOSARI,2023.2.3,Win32,60.97560976,,,,,,,,,,,,,,,,,,,,,,,,,,,,,,,,610.2242,611.0459,611.0459,612.0451,,,,,,0,0.5,,,,,,,,,,,,,,,,,,,,,,,,,,,,,,,,,,,,,,,,,,,,,,,,,,,,,0,7,7,1,1,,,,,,,,,,,,,,,,,,
,,,,,,,,Cascade,2,Female,Hispanic/Latino,NA,2024-12-12_13h18.10.435,dissOSARI,2023.2.3,Win32,60.97560976,,,,,,,,,,,,,,,,,,,,,,,,,,,,,,,,612.0454,613.0629,613.0629,614.0634,,,,,,1,0.5,,,,,,,,,,,,,,,,,,,,,,,,,,,,,,,,,,,,,,,,,,,,,,,,,,,,,0,8,8,75,1,,,,,,,,,,,,,,,,,,
,,,,,,,,Cascade,2,Female,Hispanic/Latino,NA,2024-12-12_13h18.10.435,dissOSARI,2023.2.3,Win32,60.97560976,,,,,,,,,,,,,,,,,,,,,,,,,,,,,,,,614.0637,614.9148,614.9148,615.9153,,,,,,0,0.5,,,,,,,,,,,,,,,,,,,,,,,,,,,,,,,,,,,,,,,,,,,,,,,,,,,,,0,9,9,58,1,,,,,,,,,,,,,,,,,,
,,,,,,,,Cascade,2,Female,Hispanic/Latino,NA,2024-12-12_13h18.10.435,dissOSARI,2023.2.3,Win32,60.97560976,,,,,,,,,,,,,,,,,,,,,,,,,,,,,,,,615.9155,616.7333,616.7333,617.7333,,,,,,0,0.5,,,,,,,,,,,,,,,,,,,,,,,,,,,,,,,,,,,,,,,,,,,,,,,,,,,,,0,10,10,9,1,,,,,,,,,,,,,,,,,,
,,,,,,,,Cascade,2,Female,Hispanic/Latino,NA,2024-12-12_13h18.10.435,dissOSARI,2023.2.3,Win32,60.97560976,,,,,,,,,,,,,,,,,,,,,,,,,,,,,,,,617.7335,618.5521,618.5521,619.5478,,,,,,0,0.5,,,,,,,,,,,,,,,,,,,,,,,,,,,,,,,,,,,,,,,,,,,,,,,,,,,,,0,11,11,47,1,,,,,,,,,,,,,,,,,,
,,,,,,,,Cascade,2,Female,Hispanic/Latino,NA,2024-12-12_13h18.10.435,dissOSARI,2023.2.3,Win32,60.97560976,,,,,,,,,,,,,,,,,,,,,,,,,,,,,,,,619.548,620.386,620.3861,621.3825,,,,,,0,0.5,,,,,,,,,,,,,,,,,,,,,,,,,,,,,,,,,,,,,,,,,,,,,,,,,,,,,0,12,12,26,1,,,,,,,,,,,,,,,,,,
,,,,,,,,Cascade,2,Female,Hispanic/Latino,NA,2024-12-12_13h18.10.435,dissOSARI,2023.2.3,Win32,60.97560976,,,,,,,,,,,,,,,,,,,,,,,,,,,,,,,,621.3828,622.2039,622.2039,623.2041,,,,,,0,0.5,,,,,,,,,,,,,,,,,,,,,,,,,,,,,,,,,,,,,,,,,,,,,,,,,,,,,0,13,13,51,1,,,,,,,,,,,,,,,,,,
,,,,,,,,Cascade,2,Female,Hispanic/Latino,NA,2024-12-12_13h18.10.435,dissOSARI,2023.2.3,Win32,60.97560976,,,,,,,,,,,,,,,,,,,,,,,,,,,,,,,,623.2044,624.2387,624.2387,625.2362,,,,,,1,0.5,,,,,,,,,,,,,,,,,,,,,,,,,,,,,,,,,,,,,,,,,,,,,,,,,,,,,0,14,14,74,1,,,,,,,,,,,,,,,,,,
,,,,,,,,Cascade,2,Female,Hispanic/Latino,NA,2024-12-12_13h18.10.435,dissOSARI,2023.2.3,Win32,60.97560976,,,,,,,,,,,,,,,,,,,,,,,,,,,,,,,,625.2365,626.2907,626.2907,627.2877,,,,,,0,0.5,,,,,,,,,,,,,,,,,,,,,,,,,,,,,,,,,,,,,,,,,,,,,,,,,,,,,0,15,15,15,1,,,,,,,,,,,,,,,,,,
,,,,,,,,Cascade,2,Female,Hispanic/Latino,NA,2024-12-12_13h18.10.435,dissOSARI,2023.2.3,Win32,60.97560976,,,,,,,,,,,,,,,,,,,,,,,,,,,,,,,,627.288,628.0932,628.0933,629.0891,,,,,,0,0.5,,,,,,,,,,,,,,,,,,,,,,,,,,,,,,,,,,,,,,,,,,,,,,,,,,,,,0,16,16,21,1,,,,,,,,,,,,,,,,,,
,,,,,,,,Cascade,2,Female,Hispanic/Latino,NA,2024-12-12_13h18.10.435,dissOSARI,2023.2.3,Win32,60.97560976,,,,,,,,,,,,,,,,,,,,,,,,,,,,,,,,629.0894,629.9113,629.9113,630.9113,,,,,,0,0.5,,,,,,,,,,,,,,,,,,,,,,,,,,,,,,,,,,,,,,,,,,,,,,,,,,,,,0,17,17,46,1,,,,,,,,,,,,,,,,,,
,,,,,,,,Cascade,2,Female,Hispanic/Latino,NA,2024-12-12_13h18.10.435,dissOSARI,2023.2.3,Win32,60.97560976,,,,,,,,,,,,,,,,,,,,,,,,,,,,,,,,630.9115,631.9285,631.9285,632.9254,,,,,,1,0.5,,,,,,,,,,,,,,,,,,,,,,,,,,,,,,,,,,,,,,,,,,,,,,,,,,,,,0,18,18,73,1,,,,,,,,,,,,,,,,,,
,,,,,,,,Cascade,2,Female,Hispanic/Latino,NA,2024-12-12_13h18.10.435,dissOSARI,2023.2.3,Win32,60.97560976,,,,,,,,,,,,,,,,,,,,,,,,,,,,,,,,632.9256,633.8309,633.8309,634.8311,,,,,,0,0.5,,,,,,,,,,,,,,,,,,,,,,,,,,,,,,,,,,,,,,,,,,,,,,,,,,,,,0,19,19,45,1,,,,,,,,,,,,,,,,,,
,,,,,,,,Cascade,2,Female,Hispanic/Latino,NA,2024-12-12_13h18.10.435,dissOSARI,2023.2.3,Win32,60.97560976,,,,,,,,,,,,,,,,,,,,,,,,,,,,,,,,634.8313,635.8486,635.8486,636.8494,,,,,,1,0.5,,,,,,,,,,,,,,,,,,,,,,,,,,,,,,,,,,,,,,,,,,,,,,,,,,,,,0,20,20,63,1,,,,,,,,,,,,,,,,,,
,,,,,,,,Cascade,2,Female,Hispanic/Latino,NA,2024-12-12_13h18.10.435,dissOSARI,2023.2.3,Win32,60.97560976,,,,,,,,,,,,,,,,,,,,,,,,,,,,,,,,636.8497,637.9347,637.9347,638.9307,,,,,,0,0.5,,,,,,,,,,,,,,,,,,,,,,,,,,,,,,,,,,,,,,,,,,,,,,,,,,,,,0,21,21,7,1,,,,,,,,,,,,,,,,,,
,,,,,,,,Cascade,2,Female,Hispanic/Latino,NA,2024-12-12_13h18.10.435,dissOSARI,2023.2.3,Win32,60.97560976,,,,,,,,,,,,,,,,,,,,,,,,,,,,,,,,638.9312,639.7352,639.7352,640.7359,,,,,,0,0.5,,,,,,,,,,,,,,,,,,,,,,,,,,,,,,,,,,,,,,,,,,,,,,,,,,,,,0,22,22,0,1,,,,,,,,,,,,,,,,,,
,,,,,,,,Cascade,2,Female,Hispanic/Latino,NA,2024-12-12_13h18.10.435,dissOSARI,2023.2.3,Win32,60.97560976,,,,,,,,,,,,,,,,,,,,,,,,,,,,,,,,640.7363,641.5374,641.5374,642.5334,,,,,,0,0.5,,,,,,,,,,,,,,,,,,,,,,,,,,,,,,,,,,,,,,,,,,,,,,,,,,,,,0,23,23,3,1,,,,,,,,,,,,,,,,,,
,,,,,,,,Cascade,2,Female,Hispanic/Latino,NA,2024-12-12_13h18.10.435,dissOSARI,2023.2.3,Win32,60.97560976,,,,,,,,,,,,,,,,,,,,,,,,,,,,,,,,642.5337,643.5544,643.5544,644.5559,,,,,,1,0.5,,,,,,,,,,,,,,,,,,,,,,,,,,,,,,,,,,,,,,,,,,,,,,,,,,,,,0,24,24,60,1,,,,,,,,,,,,,,,,,,
,,,,,,,,Cascade,2,Female,Hispanic/Latino,NA,2024-12-12_13h18.10.435,dissOSARI,2023.2.3,Win32,60.97560976,,,,,,,,,,,,,,,,,,,,,,,,,,,,,,,,644.5561,645.6244,645.6244,646.6204,,,,,,0,0.5,,,,,,,,,,,,,,,,,,,,,,,,,,,,,,,,,,,,,,,,,,,,,,,,,,,,,0,25,25,10,1,,,,,,,,,,,,,,,,,,
,,,,,,,,Cascade,2,Female,Hispanic/Latino,NA,2024-12-12_13h18.10.435,dissOSARI,2023.2.3,Win32,60.97560976,,,,,,,,,,,,,,,,,,,,,,,,,,,,,,,,646.6209,647.4595,647.4595,648.4592,,,,,,0,0.5,,,,,,,,,,,,,,,,,,,,,,,,,,,,,,,,,,,,,,,,,,,,,,,,,,,,,0,26,26,38,1,,,,,,,,,,,,,,,,,,
,,,,,,,,Cascade,2,Female,Hispanic/Latino,NA,2024-12-12_13h18.10.435,dissOSARI,2023.2.3,Win32,60.97560976,,,,,,,,,,,,,,,,,,,,,,,,,,,,,,,,648.4594,649.2264,649.2264,650.2232,,,,,,1,0.5,,,,,,,,,,,,,,,,,,,,,,,,,,,,,,,,,,,,,,,,,,,,,,,,,,,,,0,27,27,71,1,,,,,,,,,,,,,,,,,,
,,,,,,,,Cascade,2,Female,Hispanic/Latino,NA,2024-12-12_13h18.10.435,dissOSARI,2023.2.3,Win32,60.97560976,,,,,,,,,,,,,,,,,,,,,,,,,,,,,,,,650.2235,651.2444,651.2444,652.2455,,,,,,1,0.5,,,,,,,,,,,,,,,,,,,,,,,,,,,,,,,,,,,,,,,,,,,,,,,,,,,,,0,28,28,68,1,,,,,,,,,,,,,,,,,,
,,,,,,,,Cascade,2,Female,Hispanic/Latino,NA,2024-12-12_13h18.10.435,dissOSARI,2023.2.3,Win32,60.97560976,,,,,,,,,,,,,,,,,,,,,,,,,,,,,,,,652.2458,653.2626,653.2626,654.2628,,,,,,1,0.5,,,,,,,,,,,,,,,,,,,,,,,,,,,,,,,,,,,,,,,,,,,,,,,,,,,,,0,29,29,64,1,,,,,,,,,,,,,,,,,,
,,,,,,,,Cascade,2,Female,Hispanic/Latino,NA,2024-12-12_13h18.10.435,dissOSARI,2023.2.3,Win32,60.97560976,,,,,,,,,,,,,,,,,,,,,,,,,,,,,,,,654.2631,655.3826,655.3826,656.3783,,,,,,1,0.5,,,,,,,,,,,,,,,,,,,,,,,,,,,,,,,,,,,,,,,,,,,,,,,,,,,,,0,30,30,67,1,,,,,,,,,,,,,,,,,,
,,,,,,,,Cascade,2,Female,Hispanic/Latino,NA,2024-12-12_13h18.10.435,dissOSARI,2023.2.3,Win32,60.97560976,,,,,,,,,,,,,,,,,,,,,,,,,,,,,,,,656.3785,657.3174,657.3174,658.3171,,,,,,0,0.5,,,,,,,,,,,,,,,,,,,,,,,,,,,,,,,,,,,,,,,,,,,,,,,,,,,,,0,31,31,30,1,,,,,,,,,,,,,,,,,,
,,,,,,,,Cascade,2,Female,Hispanic/Latino,NA,2024-12-12_13h18.10.435,dissOSARI,2023.2.3,Win32,60.97560976,,,,,,,,,,,,,,,,,,,,,,,,,,,,,,,,658.3173,659.1842,659.1842,660.1853,,,,,,0,0.5,,,,,,,,,,,,,,,,,,,,,,,,,,,,,,,,,,,,,,,,,,,,,,,,,,,,,0,32,32,14,1,,,,,,,,,,,,,,,,,,
,,,,,,,,Cascade,2,Female,Hispanic/Latino,NA,2024-12-12_13h18.10.435,dissOSARI,2023.2.3,Win32,60.97560976,,,,,,,,,,,,,,,,,,,,,,,,,,,,,,,,660.1855,661.0366,661.0366,662.0369,,,,,,0,0.5,,,,,,,,,,,,,,,,,,,,,,,,,,,,,,,,,,,,,,,,,,,,,,,,,,,,,0,33,33,5,1,,,,,,,,,,,,,,,,,,
,,,,,,,,Cascade,2,Female,Hispanic/Latino,NA,2024-12-12_13h18.10.435,dissOSARI,2023.2.3,Win32,60.97560976,,,,,,,,,,,,,,,,,,,,,,,,,,,,,,,,662.0371,662.8716,662.8716,663.8714,,,,,,0,0.5,,,,,,,,,,,,,,,,,,,,,,,,,,,,,,,,,,,,,,,,,,,,,,,,,,,,,0,34,34,22,1,,,,,,,,,,,,,,,,,,
,,,,,,,,Cascade,2,Female,Hispanic/Latino,NA,2024-12-12_13h18.10.435,dissOSARI,2023.2.3,Win32,60.97560976,,,,,,,,,,,,,,,,,,,,,,,,,,,,,,,,663.8716,664.673,664.673,665.6731,,,,,,0,0.5,,,,,,,,,,,,,,,,,,,,,,,,,,,,,,,,,,,,,,,,,,,,,,,,,,,,,0,35,35,43,1,,,,,,,,,,,,,,,,,,
,,,,,,,,Cascade,2,Female,Hispanic/Latino,NA,2024-12-12_13h18.10.435,dissOSARI,2023.2.3,Win32,60.97560976,,,,,,,,,,,,,,,,,,,,,,,,,,,,,,,,665.6733,666.6909,666.6909,667.6875,,,,,,1,0.5,,,,,,,,,,,,,,,,,,,,,,,,,,,,,,,,,,,,,,,,,,,,,,,,,,,,,0,36,36,79,1,,,,,,,,,,,,,,,,,,
,,,,,,,,Cascade,2,Female,Hispanic/Latino,NA,2024-12-12_13h18.10.435,dissOSARI,2023.2.3,Win32,60.97560976,,,,,,,,,,,,,,,,,,,,,,,,,,,,,,,,667.6878,668.6267,668.6267,669.625,,,,,,0,0.5,,,,,,,,,,,,,,,,,,,,,,,,,,,,,,,,,,,,,,,,,,,,,,,,,,,,,0,37,37,29,1,,,,,,,,,,,,,,,,,,
,,,,,,,,Cascade,2,Female,Hispanic/Latino,NA,2024-12-12_13h18.10.435,dissOSARI,2023.2.3,Win32,60.97560976,,,,,,,,,,,,,,,,,,,,,,,,,,,,,,,,669.6253,670.6447,670.6447,671.6408,,,,,,1,0.5,,,,,,,,,,,,,,,,,,,,,,,,,,,,,,,,,,,,,,,,,,,,,,,,,,,,,0,38,38,65,1,,,,,,,,,,,,,,,,,,
,,,,,,,,Cascade,2,Female,Hispanic/Latino,NA,2024-12-12_13h18.10.435,dissOSARI,2023.2.3,Win32,60.97560976,,,,,,,,,,,,,,,,,,,,,,,,,,,,,,,,671.641,672.5796,672.5796,673.5764,,,,,,0,0.5,,,,,,,,,,,,,,,,,,,,,,,,,,,,,,,,,,,,,,,,,,,,,,,,,,,,,0,39,39,52,1,,,,,,,,,,,,,,,,,,
,,,,,,,,Cascade,2,Female,Hispanic/Latino,NA,2024-12-12_13h18.10.435,dissOSARI,2023.2.3,Win32,60.97560976,,,,,,,,,,,,,,,,,,,,,,,,,,,,,,,,673.5771,674.4478,674.4478,675.4441,,,,,,0,0.5,,,,,,,,,,,,,,,,,,,,,,,,,,,,,,,,,,,,,,,,,,,,,,,,,,,,,0,40,40,33,1,,,,,,,,,,,,,,,,,,
,,,,,,,,Cascade,2,Female,Hispanic/Latino,NA,2024-12-12_13h18.10.435,dissOSARI,2023.2.3,Win32,60.97560976,,,,,,,,,,,,,,,,,,,,,,,,,,,,,,,,675.4443,676.2322,676.2323,677.2288,,,,,,0,0.5,,,,,,,,,,,,,,,,,,,,,,,,,,,,,,,,,,,,,,,,,,,,,,,,,,,,,0,41,41,25,1,,,,,,,,,,,,,,,,,,
,,,,,,,,Cascade,2,Female,Hispanic/Latino,NA,2024-12-12_13h18.10.435,dissOSARI,2023.2.3,Win32,60.97560976,,,,,,,,,,,,,,,,,,,,,,,,,,,,,,,,677.229,678.2515,678.2515,679.2473,,,,,,1,0.5,,,,,,,,,,,,,,,,,,,,,,,,,,,,,,,,,,,,,,,,,,,,,,,,,,,,,0,42,42,78,1,,,,,,,,,,,,,,,,,,
,,,,,,,,Cascade,2,Female,Hispanic/Latino,NA,2024-12-12_13h18.10.435,dissOSARI,2023.2.3,Win32,60.97560976,,,,,,,,,,,,,,,,,,,,,,,,,,,,,,,,679.2477,680.2523,680.2523,681.2489,,,,,,0,0.5,,,,,,,,,,,,,,,,,,,,,,,,,,,,,,,,,,,,,,,,,,,,,,,,,,,,,0,43,43,53,1,,,,,,,,,,,,,,,,,,
,,,,,,,,Cascade,2,Female,Hispanic/Latino,NA,2024-12-12_13h18.10.435,dissOSARI,2023.2.3,Win32,60.97560976,,,,,,,,,,,,,,,,,,,,,,,,,,,,,,,,681.2491,682.1204,682.1204,683.1203,,,,,,0,0.5,,,,,,,,,,,,,,,,,,,,,,,,,,,,,,,,,,,,,,,,,,,,,,,,,,,,,0,44,44,56,1,,,,,,,,,,,,,,,,,,
,,,,,,,,Cascade,2,Female,Hispanic/Latino,NA,2024-12-12_13h18.10.435,dissOSARI,2023.2.3,Win32,60.97560976,,,,,,,,,,,,,,,,,,,,,,,,,,,,,,,,683.1205,684.3069,684.3069,685.3023,,,,,,0,0.5,,,,,,,,,,,,,,,,,,,,,,,,,,,,,,,,,,,,,,,,,,,,,,,,,,,,,0,45,45,54,1,,,,,,,,,,,,,,,,,,
,,,,,,,,Cascade,2,Female,Hispanic/Latino,NA,2024-12-12_13h18.10.435,dissOSARI,2023.2.3,Win32,60.97560976,,,,,,,,,,,,,,,,,,,,,,,,,,,,,,,,685.3028,686.1413,686.1413,687.1408,,,,,,0,0.5,,,,,,,,,,,,,,,,,,,,,,,,,,,,,,,,,,,,,,,,,,,,,,,,,,,,,0,46,46,42,1,,,,,,,,,,,,,,,,,,
,,,,,,,,Cascade,2,Female,Hispanic/Latino,NA,2024-12-12_13h18.10.435,dissOSARI,2023.2.3,Win32,60.97560976,,,,,,,,,,,,,,,,,,,,,,,,,,,,,,,,687.1411,687.959,687.959,688.9552,,,,,,0,0.5,,,,,,,,,,,,,,,,,,,,,,,,,,,,,,,,,,,,,,,,,,,,,,,,,,,,,0,47,47,28,1,,,,,,,,,,,,,,,,,,
,,,,,,,,Cascade,2,Female,Hispanic/Latino,NA,2024-12-12_13h18.10.435,dissOSARI,2023.2.3,Win32,60.97560976,,,,,,,,,,,,,,,,,,,,,,,,,,,,,,,,688.9555,689.7609,689.7609,690.7605,,,,,,0,0.5,,,,,,,,,,,,,,,,,,,,,,,,,,,,,,,,,,,,,,,,,,,,,,,,,,,,,0,48,48,44,1,,,,,,,,,,,,,,,,,,
,,,,,,,,Cascade,2,Female,Hispanic/Latino,NA,2024-12-12_13h18.10.435,dissOSARI,2023.2.3,Win32,60.97560976,,,,,,,,,,,,,,,,,,,,,,,,,,,,,,,,690.7608,691.5792,691.5792,692.5786,,,,,,0,0.5,,,,,,,,,,,,,,,,,,,,,,,,,,,,,,,,,,,,,,,,,,,,,,,,,,,,,0,49,49,35,1,,,,,,,,,,,,,,,,,,
,,,,,,,,Cascade,2,Female,Hispanic/Latino,NA,2024-12-12_13h18.10.435,dissOSARI,2023.2.3,Win32,60.97560976,,,,,,,,,,,,,,,,,,,,,,,,,,,,,,,,692.579,693.3957,693.3957,694.3964,,,,,,0,0.5,,,,,,,,,,,,,,,,,,,,,,,,,,,,,,,,,,,,,,,,,,,,,,,,,,,,,0,50,50,23,1,,,,,,,,,,,,,,,,,,
,,,,,,,,Cascade,2,Female,Hispanic/Latino,NA,2024-12-12_13h18.10.435,dissOSARI,2023.2.3,Win32,60.97560976,,,,,,,,,,,,,,,,,,,,,,,,,,,,,,,,694.3967,695.2315,695.2316,696.2279,,,,,,0,0.5,,,,,,,,,,,,,,,,,,,,,,,,,,,,,,,,,,,,,,,,,,,,,,,,,,,,,0,51,51,4,1,,,,,,,,,,,,,,,,,,
,,,,,,,,Cascade,2,Female,Hispanic/Latino,NA,2024-12-12_13h18.10.435,dissOSARI,2023.2.3,Win32,60.97560976,,,,,,,,,,,,,,,,,,,,,,,,,,,,,,,,696.2282,697.0668,697.0668,698.0663,,,,,,0,0.5,,,,,,,,,,,,,,,,,,,,,,,,,,,,,,,,,,,,,,,,,,,,,,,,,,,,,0,52,52,20,1,,,,,,,,,,,,,,,,,,
,,,,,,,,Cascade,2,Female,Hispanic/Latino,NA,2024-12-12_13h18.10.435,dissOSARI,2023.2.3,Win32,60.97560976,,,,,,,,,,,,,,,,,,,,,,,,,,,,,,,,698.0665,699.0837,699.0837,700.0851,,,,,,1,0.5,,,,,,,,,,,,,,,,,,,,,,,,,,,,,,,,,,,,,,,,,,,,,,,,,,,,,0,53,53,62,1,,,,,,,,,,,,,,,,,,
,,,,,,,,Cascade,2,Female,Hispanic/Latino,NA,2024-12-12_13h18.10.435,dissOSARI,2023.2.3,Win32,60.97560976,,,,,,,,,,,,,,,,,,,,,,,,,,,,,,,,700.0854,700.9522,700.9522,701.9525,,,,,,0,0.5,,,,,,,,,,,,,,,,,,,,,,,,,,,,,,,,,,,,,,,,,,,,,,,,,,,,,0,54,54,41,1,,,,,,,,,,,,,,,,,,
,,,,,,,,Cascade,2,Female,Hispanic/Latino,NA,2024-12-12_13h18.10.435,dissOSARI,2023.2.3,Win32,60.97560976,,,,,,,,,,,,,,,,,,,,,,,,,,,,,,,,701.9527,702.8205,702.8205,703.821,,,,,,0,0.5,,,,,,,,,,,,,,,,,,,,,,,,,,,,,,,,,,,,,,,,,,,,,,,,,,,,,0,55,55,24,1,,,,,,,,,,,,,,,,,,
,,,,,,,,Cascade,2,Female,Hispanic/Latino,NA,2024-12-12_13h18.10.435,dissOSARI,2023.2.3,Win32,60.97560976,,,,,,,,,,,,,,,,,,,,,,,,,,,,,,,,703.8212,704.6733,704.6733,705.6726,,,,,,0,0.5,,,,,,,,,,,,,,,,,,,,,,,,,,,,,,,,,,,,,,,,,,,,,,,,,,,,,0,56,56,40,1,,,,,,,,,,,,,,,,,,
,,,,,,,,Cascade,2,Female,Hispanic/Latino,NA,2024-12-12_13h18.10.435,dissOSARI,2023.2.3,Win32,60.97560976,,,,,,,,,,,,,,,,,,,,,,,,,,,,,,,,705.6729,706.4581,706.4581,707.4543,,,,,,0,0.5,,,,,,,,,,,,,,,,,,,,,,,,,,,,,,,,,,,,,,,,,,,,,,,,,,,,,0,57,57,18,1,,,,,,,,,,,,,,,,,,
,,,,,,,,Cascade,2,Female,Hispanic/Latino,NA,2024-12-12_13h18.10.435,dissOSARI,2023.2.3,Win32,60.97560976,,,,,,,,,,,,,,,,,,,,,,,,,,,,,,,,707.4551,708.4752,708.4752,709.4722,,,,,,1,0.5,,,,,,,,,,,,,,,,,,,,,,,,,,,,,,,,,,,,,,,,,,,,,,,,,,,,,0,58,58,76,1,,,,,,,,,,,,,,,,,,
,,,,,,,,Cascade,2,Female,Hispanic/Latino,NA,2024-12-12_13h18.10.435,dissOSARI,2023.2.3,Win32,60.97560976,,,,,,,,,,,,,,,,,,,,,,,,,,,,,,,,709.4724,710.3269,710.327,711.3275,,,,,,0,0.5,,,,,,,,,,,,,,,,,,,,,,,,,,,,,,,,,,,,,,,,,,,,,,,,,,,,,0,59,59,6,1,,,,,,,,,,,,,,,,,,
,,,,,,,,Cascade,2,Female,Hispanic/Latino,NA,2024-12-12_13h18.10.435,dissOSARI,2023.2.3,Win32,60.97560976,,,,,,,,,,,,,,,,,,,,,,,,,,,,,,,,711.3277,712.1455,712.1455,713.1416,,,,,,0,0.5,,,,,,,,,,,,,,,,,,,,,,,,,,,,,,,,,,,,,,,,,,,,,,,,,,,,,0,60,60,55,1,,,,,,,,,,,,,,,,,,
,,,,,,,,Cascade,2,Female,Hispanic/Latino,NA,2024-12-12_13h18.10.435,dissOSARI,2023.2.3,Win32,60.97560976,,,,,,,,,,,,,,,,,,,,,,,,,,,,,,,,713.1418,714.1632,714.1632,715.1602,,,,,,1,0.5,,,,,,,,,,,,,,,,,,,,,,,,,,,,,,,,,,,,,,,,,,,,,,,,,,,,,0,61,61,77,1,,,,,,,,,,,,,,,,,,
,,,,,,,,Cascade,2,Female,Hispanic/Latino,NA,2024-12-12_13h18.10.435,dissOSARI,2023.2.3,Win32,60.97560976,,,,,,,,,,,,,,,,,,,,,,,,,,,,,,,,715.1605,716.0155,716.0155,717.0119,,,,,,0,0.5,,,,,,,,,,,,,,,,,,,,,,,,,,,,,,,,,,,,,,,,,,,,,,,,,,,,,0,62,62,19,1,,,,,,,,,,,,,,,,,,
,,,,,,,,Cascade,2,Female,Hispanic/Latino,NA,2024-12-12_13h18.10.435,dissOSARI,2023.2.3,Win32,60.97560976,,,,,,,,,,,,,,,,,,,,,,,,,,,,,,,,717.0121,717.8335,717.8335,718.8337,,,,,,0,0.5,,,,,,,,,,,,,,,,,,,,,,,,,,,,,,,,,,,,,,,,,,,,,,,,,,,,,0,63,63,2,1,,,,,,,,,,,,,,,,,,
,,,,,,,,Cascade,2,Female,Hispanic/Latino,NA,2024-12-12_13h18.10.435,dissOSARI,2023.2.3,Win32,60.97560976,,,,,,,,,,,,,,,,,,,,,,,,,,,,,,,,718.834,719.6682,719.6682,720.6649,,,,,,0,0.5,,,,,,,,,,,,,,,,,,,,,,,,,,,,,,,,,,,,,,,,,,,,,,,,,,,,,0,64,64,34,1,,,,,,,,,,,,,,,,,,
,,,,,,,,Cascade,2,Female,Hispanic/Latino,NA,2024-12-12_13h18.10.435,dissOSARI,2023.2.3,Win32,60.97560976,,,,,,,,,,,,,,,,,,,,,,,,,,,,,,,,720.6651,721.6859,721.686,722.687,,,,,,1,0.5,,,,,,,,,,,,,,,,,,,,,,,,,,,,,,,,,,,,,,,,,,,,,,,,,,,,,0,65,65,69,1,,,,,,,,,,,,,,,,,,
,,,,,,,,Cascade,2,Female,Hispanic/Latino,NA,2024-12-12_13h18.10.435,dissOSARI,2023.2.3,Win32,60.97560976,,,,,,,,,,,,,,,,,,,,,,,,,,,,,,,,722.6873,723.4879,723.4879,724.4886,,,,,,0,0.5,,,,,,,,,,,,,,,,,,,,,,,,,,,,,,,,,,,,,,,,,,,,,,,,,,,,,0,66,66,31,1,,,,,,,,,,,,,,,,,,
,,,,,,,,Cascade,2,Female,Hispanic/Latino,NA,2024-12-12_13h18.10.435,dissOSARI,2023.2.3,Win32,60.97560976,,,,,,,,,,,,,,,,,,,,,,,,,,,,,,,,724.4889,725.3402,725.3402,726.3365,,,,,,0,0.5,,,,,,,,,,,,,,,,,,,,,,,,,,,,,,,,,,,,,,,,,,,,,,,,,,,,,0,67,67,48,1,,,,,,,,,,,,,,,,,,
,,,,,,,,Cascade,2,Female,Hispanic/Latino,NA,2024-12-12_13h18.10.435,dissOSARI,2023.2.3,Win32,60.97560976,,,,,,,,,,,,,,,,,,,,,,,,,,,,,,,,726.3369,727.3587,727.3587,728.3583,,,,,,1,0.5,,,,,,,,,,,,,,,,,,,,,,,,,,,,,,,,,,,,,,,,,,,,,,,,,,,,,0,68,68,72,1,,,,,,,,,,,,,,,,,,
,,,,,,,,Cascade,2,Female,Hispanic/Latino,NA,2024-12-12_13h18.10.435,dissOSARI,2023.2.3,Win32,60.97560976,,,,,,,,,,,,,,,,,,,,,,,,,,,,,,,,728.3585,729.2256,729.2256,730.2227,,,,,,0,0.5,,,,,,,,,,,,,,,,,,,,,,,,,,,,,,,,,,,,,,,,,,,,,,,,,,,,,0,69,69,12,1,,,,,,,,,,,,,,,,,,
,,,,,,,,Cascade,2,Female,Hispanic/Latino,NA,2024-12-12_13h18.10.435,dissOSARI,2023.2.3,Win32,60.97560976,,,,,,,,,,,,,,,,,,,,,,,,,,,,,,,,730.2229,731.061,731.061,732.0575,,,,,,0,0.5,,,,,,,,,,,,,,,,,,,,,,,,,,,,,,,,,,,,,,,,,,,,,,,,,,,,,0,70,70,27,1,,,,,,,,,,,,,,,,,,
,,,,,,,,Cascade,2,Female,Hispanic/Latino,NA,2024-12-12_13h18.10.435,dissOSARI,2023.2.3,Win32,60.97560976,,,,,,,,,,,,,,,,,,,,,,,,,,,,,,,,732.0579,732.9129,732.913,733.9131,,,,,,0,0.5,,,,,,,,,,,,,,,,,,,,,,,,,,,,,,,,,,,,,,,,,,,,,,,,,,,,,0,71,71,13,1,,,,,,,,,,,,,,,,,,
,,,,,,,,Cascade,2,Female,Hispanic/Latino,NA,2024-12-12_13h18.10.435,dissOSARI,2023.2.3,Win32,60.97560976,,,,,,,,,,,,,,,,,,,,,,,,,,,,,,,,733.9133,734.9305,734.9305,735.9314,,,,,,1,0.5,,,,,,,,,,,,,,,,,,,,,,,,,,,,,,,,,,,,,,,,,,,,,,,,,,,,,0,72,72,61,1,,,,,,,,,,,,,,,,,,
,,,,,,,,Cascade,2,Female,Hispanic/Latino,NA,2024-12-12_13h18.10.435,dissOSARI,2023.2.3,Win32,60.97560976,,,,,,,,,,,,,,,,,,,,,,,,,,,,,,,,735.9317,736.9664,736.9664,737.9659,,,,,,1,0.5,,,,,,,,,,,,,,,,,,,,,,,,,,,,,,,,,,,,,,,,,,,,,,,,,,,,,0,73,73,66,1,,,,,,,,,,,,,,,,,,
,,,,,,,,Cascade,2,Female,Hispanic/Latino,NA,2024-12-12_13h18.10.435,dissOSARI,2023.2.3,Win32,60.97560976,,,,,,,,,,,,,,,,,,,,,,,,,,,,,,,,737.9661,739.1173,739.1173,740.1144,,,,,,0,0.5,,,,,,,,,,,,,,,,,,,,,,,,,,,,,,,,,,,,,,,,,,,,,,,,,,,,,0,74,74,32,1,,,,,,,,,,,,,,,,,,
,,,,,,,,Cascade,2,Female,Hispanic/Latino,NA,2024-12-12_13h18.10.435,dissOSARI,2023.2.3,Win32,60.97560976,,,,,,,,,,,,,,,,,,,,,,,,,,,,,,,,740.1146,740.9368,740.9368,741.9324,,,,,,0,0.5,,,,,,,,,,,,,,,,,,,,,,,,,,,,,,,,,,,,,,,,,,,,,,,,,,,,,0,75,75,11,1,,,,,,,,,,,,,,,,,,
,,,,,,,,Cascade,2,Female,Hispanic/Latino,NA,2024-12-12_13h18.10.435,dissOSARI,2023.2.3,Win32,60.97560976,,,,,,,,,,,,,,,,,,,,,,,,,,,,,,,,741.9327,742.7368,742.7368,743.7346,,,,,,0,0.5,,,,,,,,,,,,,,,,,,,,,,,,,,,,,,,,,,,,,,,,,,,,,,,,,,,,,0,76,76,8,1,,,,,,,,,,,,,,,,,,
,,,,,,,,Cascade,2,Female,Hispanic/Latino,NA,2024-12-12_13h18.10.435,dissOSARI,2023.2.3,Win32,60.97560976,,,,,,,,,,,,,,,,,,,,,,,,,,,,,,,,743.7353,744.5551,744.5551,745.5557,,,,,,0,0.5,,,,,,,,,,,,,,,,,,,,,,,,,,,,,,,,,,,,,,,,,,,,,,,,,,,,,0,77,77,16,1,,,,,,,,,,,,,,,,,,
,,,,,,,,Cascade,2,Female,Hispanic/Latino,NA,2024-12-12_13h18.10.435,dissOSARI,2023.2.3,Win32,60.97560976,,,,,,,,,,,,,,,,,,,,,,,,,,,,,,,,745.556,746.4578,746.4578,747.4537,,,,,,0,0.5,,,,,,,,,,,,,,,,,,,,,,,,,,,,,,,,,,,,,,,,,,,,,,,,,,,,,0,78,78,37,1,,,,,,,,,,,,,,,,,,
,,,,,,,,Cascade,2,Female,Hispanic/Latino,NA,2024-12-12_13h18.10.435,dissOSARI,2023.2.3,Win32,60.97560976,,,,,,,,,,,,,,,,,,,,,,,,,,,,,,,,747.454,748.325,748.3251,749.3256,,,,,,0,0.5,,,,,,,,,,,,,,,,,,,,,,,,,,,,,,,,,,,,,,,,,,,,,,,,,,,,,0,79,79,59,1,,,,,,,,,,,,,,,,,,
,,,,,,,,Cascade,2,Female,Hispanic/Latino,NA,2024-12-12_13h18.10.435,dissOSARI,2023.2.3,Win32,60.97560976,,,,,,,,,,,,,,,,,,,,,,,,,,,,,,,,,,,,,,,,,,,,,,,,,,,,,,,,,,,,,,,,,,,,,,,,,,,,,,,,,,,,,,,,,,,,,,,,,,,,749.326,765.6726,5,0.367098248,-0.252475248,1,0,0,14.7079,EndFatigue,,,,,,,,
,,,,,,,,Cascade,2,Female,Hispanic/Latino,NA,2024-12-12_13h18.10.435,dissOSARI,2023.2.3,Win32,60.97560976,,,,,,,,,,,,,,,,,,,,,,,,,,,,,,,,,,,,,,,,,,,,,,,,,,,,,,,,,,,,,,,,,,,,,,,,,,,,,,,,,,,,,,,,,,,,,,,,,,,,,,,,,,,,,,765.6728,1269.4525,-0.384615385,0.138233054,1,0,0,503.7788