welcome.started,welcome.stopped,WelcomeClick.x,WelcomeClick.y,WelcomeClick.leftButton,WelcomeClick.midButton,WelcomeClick.rightButton,WelcomeClick.time,participant,week,gender,race/ ethnicity,cognitive health history,date,expName,psychopyVersion,OS,frameRate,intro.started,intro.stopped,readyClick.x,readyClick.y,readyClick.leftButton,readyClick.midButton,readyClick.rightButton,practGoInst.started,practGoInst.stopped,PractGoClick.x,PractGoClick.y,PractGoClick.leftButton,PractGoClick.midButton,PractGoClick.rightButton,PractGoClick.time,practGoInst2.started,practGoInst2.stopped,PractGo2Click.x,PractGo2Click.y,PractGo2Click.leftButton,PractGo2Click.midButton,PractGo2Click.rightButton,PractGo2Click.time,practGoInst3.started,practGoInst3.stopped,PractGo3Click.x,PractGo3Click.y,PractGo3Click.leftButton,PractGo3Click.midButton,PractGo3Click.rightButton,PractGo3Click.time,trial.started,trial.stopped,feedback.started,feedback.stopped,practGo.thisRepN,practGo.thisTrialN,practGo.thisN,practGo.thisIndex,practGo.ran,Signal,fixedStopTime,testGoInst.started,testGoInst.stopped,GoTestClick.x,GoTestClick.y,GoTestClick.leftButton,GoTestClick.midButton,GoTestClick.rightButton,GoTestClick.time,TestGo.thisRepN,TestGo.thisTrialN,TestGo.thisN,TestGo.thisIndex,TestGo.ran,mixPractIntro.started,mixPractIntro.stopped,MixIntroClick.x,MixIntroClick.y,MixIntroClick.leftButton,MixIntroClick.midButton,MixIntroClick.rightButton,MixIntroClick.time,mixPractInst.started,mixPractInst.stopped,StopInstClick.x,StopInstClick.y,StopInstClick.leftButton,StopInstClick.midButton,StopInstClick.rightButton,StopInstClick.time,mixPractInst2.started,mixPractInst2.stopped,PractStop2Click.x,PractStop2Click.y,PractStop2Click.leftButton,PractStop2Click.midButton,PractStop2Click.rightButton,PractStop2Click.time,mixPractInst3.started,mixPractInst3.stopped,PractStop3Click.x,PractStop3Click.y,PractStop3Click.leftButton,PractStop3Click.midButton,PractStop3Click.rightButton,PractStop3Click.time,mixPract.thisRepN,mixPract.thisTrialN,mixPract.thisN,mixPract.thisIndex,mixPract.ran,breakResetTrial.started,breakResetTrial.stopped,trials.thisRepN,trials.thisTrialN,trials.thisN,trials.thisIndex,trials.ran,MentalFatigue.started,MentalFatigue.stopped,textbox.text,EndClick.x,EndClick.y,EndClick.leftButton,EndClick.midButton,EndClick.rightButton,EndClick.time,EndClick.clicked_name,end.started,end.stopped,mouse_2.x,mouse_2.y,mouse_2.leftButton,mouse_2.midButton,mouse_2.rightButton,mouse_2.time
9.99999E-05,29.2342,0.025133283,-0.14737243,1,0,0,28.9742,glacier,2,Female,African American,,2024-12-11_12h26.02.509,dissOSARI,2023.2.3,Win32,60.60606061,,,,,,,,,,,,,,,,,,,,,,,,,,,,,,,,,,,,,,,,,,,,,,,,,,,,,,,,,,,,,,,,,,,,,,,,,,,,,,,,,,,,,,,,,,,,,,,,,,,,,,,,,,,,,,,,,,,,,
,,,,,,,,glacier,2,Female,African American,,2024-12-11_12h26.02.509,dissOSARI,2023.2.3,Win32,60.60606061,29.2345,29.9675,-0.075399848,-0.246382331,1,0,0,,,,,,,,,,,,,,,,,,,,,,,,,,,,,,,,,,,,,,,,,,,,,,,,,,,,,,,,,,,,,,,,,,,,,,,,,,,,,,,,,,,,,,,,,,,,,,,,,,,,,,,,,,,,,,
,,,,,,,,glacier,2,Female,African American,,2024-12-11_12h26.02.509,dissOSARI,2023.2.3,Win32,60.60606061,,,,,,,,29.9676,30.8356,-0.09063214,-0.241051028,1,0,0,0.6173,,,,,,,,,,,,,,,,,,,,,,,,,,,,,,,,,,,,,,,,,,,,,,,,,,,,,,,,,,,,,,,,,,,,,,,,,,,,,,,,,,,,,,,,,,,,,,,,,,,,,,
,,,,,,,,glacier,2,Female,African American,,2024-12-11_12h26.02.509,dissOSARI,2023.2.3,Win32,60.60606061,,,,,,,,,,,,,,,,30.8358,31.3196,-0.09063214,-0.241051028,1,0,0,0.2174,,,,,,,,,,,,,,,,,,,,,,,,,,,,,,,,,,,,,,,,,,,,,,,,,,,,,,,,,,,,,,,,,,,,,,,,,,,,,,,,,,,,,,,,,,,,,,
,,,,,,,,glacier,2,Female,African American,,2024-12-11_12h26.02.509,dissOSARI,2023.2.3,Win32,60.60606061,,,,,,,,,,,,,,,,,,,,,,,,31.32,31.9031,-0.09063214,-0.241051028,1,0,0,0.3171,,,,,,,,,,,,,,,,,,,,,,,,,,,,,,,,,,,,,,,,,,,,,,,,,,,,,,,,,,,,,,,,,,,,,,,,,,,,,,,,,,,,,,
,,,,,,,,glacier,2,Female,African American,,2024-12-11_12h26.02.509,dissOSARI,2023.2.3,Win32,60.60606061,,,,,,,,,,,,,,,,,,,,,,,,,,,,,,,,31.9083,34.3391,34.3393,35.3392,0,0,0,1,1,0,0.5,,,,,,,,,,,,,,,,,,,,,,,,,,,,,,,,,,,,,,,,,,,,,,,,,,,,,,,,,,,,,,,,,,,,,,,,,,,
,,,,,,,,glacier,2,Female,African American,,2024-12-11_12h26.02.509,dissOSARI,2023.2.3,Win32,60.60606061,,,,,,,,,,,,,,,,,,,,,,,,,,,,,,,,35.3396,36.8576,36.8576,37.8577,0,1,1,2,1,0,0.5,,,,,,,,,,,,,,,,,,,,,,,,,,,,,,,,,,,,,,,,,,,,,,,,,,,,,,,,,,,,,,,,,,,,,,,,,,,
,,,,,,,,glacier,2,Female,African American,,2024-12-11_12h26.02.509,dissOSARI,2023.2.3,Win32,60.60606061,,,,,,,,,,,,,,,,,,,,,,,,,,,,,,,,37.8585,38.9588,38.9589,39.9592,0,2,2,4,1,0,0.5,,,,,,,,,,,,,,,,,,,,,,,,,,,,,,,,,,,,,,,,,,,,,,,,,,,,,,,,,,,,,,,,,,,,,,,,,,,
,,,,,,,,glacier,2,Female,African American,,2024-12-11_12h26.02.509,dissOSARI,2023.2.3,Win32,60.60606061,,,,,,,,,,,,,,,,,,,,,,,,,,,,,,,,39.96,40.8108,40.8109,41.8108,0,3,3,3,1,0,0.5,,,,,,,,,,,,,,,,,,,,,,,,,,,,,,,,,,,,,,,,,,,,,,,,,,,,,,,,,,,,,,,,,,,,,,,,,,,
,,,,,,,,glacier,2,Female,African American,,2024-12-11_12h26.02.509,dissOSARI,2023.2.3,Win32,60.60606061,,,,,,,,,,,,,,,,,,,,,,,,,,,,,,,,41.8115,42.6122,42.6122,43.6126,0,4,4,0,1,0,0.5,,,,,,,,,,,,,,,,,,,,,,,,,,,,,,,,,,,,,,,,,,,,,,,,,,,,,,,,,,,,,,,,,,,,,,,,,,,
,,,,,,,,glacier,2,Female,African American,,2024-12-11_12h26.02.509,dissOSARI,2023.2.3,Win32,60.60606061,,,,,,,,,,,,,,,,,,,,,,,,,,,,,,,,,,,,,,,,,,,43.6131,44.6635,0.392993145,-0.413175933,1,0,0,0.2836,,,,,,,,,,,,,,,,,,,,,,,,,,,,,,,,,,,,,,,,,,,,,,,,,,,,,,,,,,,,,,,,,,,
,,,,,,,,glacier,2,Female,African American,,2024-12-11_12h26.02.509,dissOSARI,2023.2.3,Win32,60.60606061,,,,,,,,,,,,,,,,,,,,,,,,,,,,,,,,44.6651,44.7802,44.7802,45.7808,,,,,,0,0.5,,,,,,,,,0,0,0,22,1,,,,,,,,,,,,,,,,,,,,,,,,,,,,,,,,,,,,,,,,,,,,,,,,,,,,,,,,,,,,,,
,,,,,,,,glacier,2,Female,African American,,2024-12-11_12h26.02.509,dissOSARI,2023.2.3,Win32,60.60606061,,,,,,,,,,,,,,,,,,,,,,,,,,,,,,,,45.7814,46.599,46.599,47.5992,,,,,,0,0.5,,,,,,,,,0,1,1,14,1,,,,,,,,,,,,,,,,,,,,,,,,,,,,,,,,,,,,,,,,,,,,,,,,,,,,,,,,,,,,,,
,,,,,,,,glacier,2,Female,African American,,2024-12-11_12h26.02.509,dissOSARI,2023.2.3,Win32,60.60606061,,,,,,,,,,,,,,,,,,,,,,,,,,,,,,,,47.5999,48.6008,48.6009,49.6007,,,,,,0,0.5,,,,,,,,,0,2,2,6,1,,,,,,,,,,,,,,,,,,,,,,,,,,,,,,,,,,,,,,,,,,,,,,,,,,,,,,,,,,,,,,
,,,,,,,,glacier,2,Female,African American,,2024-12-11_12h26.02.509,dissOSARI,2023.2.3,Win32,60.60606061,,,,,,,,,,,,,,,,,,,,,,,,,,,,,,,,49.6011,50.4354,50.4355,51.4355,,,,,,0,0.5,,,,,,,,,0,3,3,30,1,,,,,,,,,,,,,,,,,,,,,,,,,,,,,,,,,,,,,,,,,,,,,,,,,,,,,,,,,,,,,,
,,,,,,,,glacier,2,Female,African American,,2024-12-11_12h26.02.509,dissOSARI,2023.2.3,Win32,60.60606061,,,,,,,,,,,,,,,,,,,,,,,,,,,,,,,,51.436,52.2369,52.2369,53.2371,,,,,,0,0.5,,,,,,,,,0,4,4,47,1,,,,,,,,,,,,,,,,,,,,,,,,,,,,,,,,,,,,,,,,,,,,,,,,,,,,,,,,,,,,,,
,,,,,,,,glacier,2,Female,African American,,2024-12-11_12h26.02.509,dissOSARI,2023.2.3,Win32,60.60606061,,,,,,,,,,,,,,,,,,,,,,,,,,,,,,,,53.2378,54.1048,54.1048,55.105,,,,,,0,0.5,,,,,,,,,0,5,5,33,1,,,,,,,,,,,,,,,,,,,,,,,,,,,,,,,,,,,,,,,,,,,,,,,,,,,,,,,,,,,,,,
,,,,,,,,glacier,2,Female,African American,,2024-12-11_12h26.02.509,dissOSARI,2023.2.3,Win32,60.60606061,,,,,,,,,,,,,,,,,,,,,,,,,,,,,,,,55.1053,55.9064,55.9064,56.9077,,,,,,0,0.5,,,,,,,,,0,6,6,25,1,,,,,,,,,,,,,,,,,,,,,,,,,,,,,,,,,,,,,,,,,,,,,,,,,,,,,,,,,,,,,,
,,,,,,,,glacier,2,Female,African American,,2024-12-11_12h26.02.509,dissOSARI,2023.2.3,Win32,60.60606061,,,,,,,,,,,,,,,,,,,,,,,,,,,,,,,,56.9081,57.7239,57.7239,58.7247,,,,,,0,0.5,,,,,,,,,0,7,7,26,1,,,,,,,,,,,,,,,,,,,,,,,,,,,,,,,,,,,,,,,,,,,,,,,,,,,,,,,,,,,,,,
,,,,,,,,glacier,2,Female,African American,,2024-12-11_12h26.02.509,dissOSARI,2023.2.3,Win32,60.60606061,,,,,,,,,,,,,,,,,,,,,,,,,,,,,,,,58.7251,59.5427,59.5427,60.5427,,,,,,0,0.5,,,,,,,,,0,8,8,15,1,,,,,,,,,,,,,,,,,,,,,,,,,,,,,,,,,,,,,,,,,,,,,,,,,,,,,,,,,,,,,,
,,,,,,,,glacier,2,Female,African American,,2024-12-11_12h26.02.509,dissOSARI,2023.2.3,Win32,60.60606061,,,,,,,,,,,,,,,,,,,,,,,,,,,,,,,,60.5434,61.4608,61.4608,62.461,,,,,,0,0.5,,,,,,,,,0,9,9,9,1,,,,,,,,,,,,,,,,,,,,,,,,,,,,,,,,,,,,,,,,,,,,,,,,,,,,,,,,,,,,,,
,,,,,,,,glacier,2,Female,African American,,2024-12-11_12h26.02.509,dissOSARI,2023.2.3,Win32,60.60606061,,,,,,,,,,,,,,,,,,,,,,,,,,,,,,,,62.4612,63.5793,63.5793,64.5797,,,,,,0,0.5,,,,,,,,,0,10,10,38,1,,,,,,,,,,,,,,,,,,,,,,,,,,,,,,,,,,,,,,,,,,,,,,,,,,,,,,,,,,,,,,
,,,,,,,,glacier,2,Female,African American,,2024-12-11_12h26.02.509,dissOSARI,2023.2.3,Win32,60.60606061,,,,,,,,,,,,,,,,,,,,,,,,,,,,,,,,64.5801,65.3643,65.3644,66.3646,,,,,,0,0.5,,,,,,,,,0,11,11,42,1,,,,,,,,,,,,,,,,,,,,,,,,,,,,,,,,,,,,,,,,,,,,,,,,,,,,,,,,,,,,,,
,,,,,,,,glacier,2,Female,African American,,2024-12-11_12h26.02.509,dissOSARI,2023.2.3,Win32,60.60606061,,,,,,,,,,,,,,,,,,,,,,,,,,,,,,,,66.3651,67.1485,67.1485,68.1492,,,,,,0,0.5,,,,,,,,,0,12,12,28,1,,,,,,,,,,,,,,,,,,,,,,,,,,,,,,,,,,,,,,,,,,,,,,,,,,,,,,,,,,,,,,
,,,,,,,,glacier,2,Female,African American,,2024-12-11_12h26.02.509,dissOSARI,2023.2.3,Win32,60.60606061,,,,,,,,,,,,,,,,,,,,,,,,,,,,,,,,68.1495,69.0342,69.0342,70.0339,,,,,,0,0.5,,,,,,,,,0,13,13,46,1,,,,,,,,,,,,,,,,,,,,,,,,,,,,,,,,,,,,,,,,,,,,,,,,,,,,,,,,,,,,,,
,,,,,,,,glacier,2,Female,African American,,2024-12-11_12h26.02.509,dissOSARI,2023.2.3,Win32,60.60606061,,,,,,,,,,,,,,,,,,,,,,,,,,,,,,,,70.0344,70.8523,70.8523,71.8523,,,,,,0,0.5,,,,,,,,,0,14,14,34,1,,,,,,,,,,,,,,,,,,,,,,,,,,,,,,,,,,,,,,,,,,,,,,,,,,,,,,,,,,,,,,
,,,,,,,,glacier,2,Female,African American,,2024-12-11_12h26.02.509,dissOSARI,2023.2.3,Win32,60.60606061,,,,,,,,,,,,,,,,,,,,,,,,,,,,,,,,71.8528,72.6705,72.6705,73.6705,,,,,,0,0.5,,,,,,,,,0,15,15,10,1,,,,,,,,,,,,,,,,,,,,,,,,,,,,,,,,,,,,,,,,,,,,,,,,,,,,,,,,,,,,,,
,,,,,,,,glacier,2,Female,African American,,2024-12-11_12h26.02.509,dissOSARI,2023.2.3,Win32,60.60606061,,,,,,,,,,,,,,,,,,,,,,,,,,,,,,,,73.6708,74.4887,74.4887,75.4888,,,,,,0,0.5,,,,,,,,,0,16,16,3,1,,,,,,,,,,,,,,,,,,,,,,,,,,,,,,,,,,,,,,,,,,,,,,,,,,,,,,,,,,,,,,
,,,,,,,,glacier,2,Female,African American,,2024-12-11_12h26.02.509,dissOSARI,2023.2.3,Win32,60.60606061,,,,,,,,,,,,,,,,,,,,,,,,,,,,,,,,75.4893,76.3401,76.3401,77.3401,,,,,,0,0.5,,,,,,,,,0,17,17,5,1,,,,,,,,,,,,,,,,,,,,,,,,,,,,,,,,,,,,,,,,,,,,,,,,,,,,,,,,,,,,,,
,,,,,,,,glacier,2,Female,African American,,2024-12-11_12h26.02.509,dissOSARI,2023.2.3,Win32,60.60606061,,,,,,,,,,,,,,,,,,,,,,,,,,,,,,,,77.3404,78.2084,78.2084,79.2087,,,,,,0,0.5,,,,,,,,,0,18,18,17,1,,,,,,,,,,,,,,,,,,,,,,,,,,,,,,,,,,,,,,,,,,,,,,,,,,,,,,,,,,,,,,
,,,,,,,,glacier,2,Female,African American,,2024-12-11_12h26.02.509,dissOSARI,2023.2.3,Win32,60.60606061,,,,,,,,,,,,,,,,,,,,,,,,,,,,,,,,79.2095,80.1267,80.1267,81.1264,,,,,,0,0.5,,,,,,,,,0,19,19,35,1,,,,,,,,,,,,,,,,,,,,,,,,,,,,,,,,,,,,,,,,,,,,,,,,,,,,,,,,,,,,,,
,,,,,,,,glacier,2,Female,African American,,2024-12-11_12h26.02.509,dissOSARI,2023.2.3,Win32,60.60606061,,,,,,,,,,,,,,,,,,,,,,,,,,,,,,,,81.1269,81.9445,81.9445,82.9446,,,,,,0,0.5,,,,,,,,,0,20,20,11,1,,,,,,,,,,,,,,,,,,,,,,,,,,,,,,,,,,,,,,,,,,,,,,,,,,,,,,,,,,,,,,
,,,,,,,,glacier,2,Female,African American,,2024-12-11_12h26.02.509,dissOSARI,2023.2.3,Win32,60.60606061,,,,,,,,,,,,,,,,,,,,,,,,,,,,,,,,82.9451,83.796,83.796,84.7964,,,,,,0,0.5,,,,,,,,,0,21,21,2,1,,,,,,,,,,,,,,,,,,,,,,,,,,,,,,,,,,,,,,,,,,,,,,,,,,,,,,,,,,,,,,
,,,,,,,,glacier,2,Female,African American,,2024-12-11_12h26.02.509,dissOSARI,2023.2.3,Win32,60.60606061,,,,,,,,,,,,,,,,,,,,,,,,,,,,,,,,84.7971,85.5645,85.5645,86.5645,,,,,,0,0.5,,,,,,,,,0,22,22,24,1,,,,,,,,,,,,,,,,,,,,,,,,,,,,,,,,,,,,,,,,,,,,,,,,,,,,,,,,,,,,,,
,,,,,,,,glacier,2,Female,African American,,2024-12-11_12h26.02.509,dissOSARI,2023.2.3,Win32,60.60606061,,,,,,,,,,,,,,,,,,,,,,,,,,,,,,,,86.565,87.4164,87.4164,88.4163,,,,,,0,0.5,,,,,,,,,0,23,23,19,1,,,,,,,,,,,,,,,,,,,,,,,,,,,,,,,,,,,,,,,,,,,,,,,,,,,,,,,,,,,,,,
,,,,,,,,glacier,2,Female,African American,,2024-12-11_12h26.02.509,dissOSARI,2023.2.3,Win32,60.60606061,,,,,,,,,,,,,,,,,,,,,,,,,,,,,,,,88.4168,89.184,89.184,90.1837,,,,,,0,0.5,,,,,,,,,0,24,24,18,1,,,,,,,,,,,,,,,,,,,,,,,,,,,,,,,,,,,,,,,,,,,,,,,,,,,,,,,,,,,,,,
,,,,,,,,glacier,2,Female,African American,,2024-12-11_12h26.02.509,dissOSARI,2023.2.3,Win32,60.60606061,,,,,,,,,,,,,,,,,,,,,,,,,,,,,,,,90.184,90.9691,90.9691,91.9691,,,,,,0,0.5,,,,,,,,,0,25,25,0,1,,,,,,,,,,,,,,,,,,,,,,,,,,,,,,,,,,,,,,,,,,,,,,,,,,,,,,,,,,,,,,
,,,,,,,,glacier,2,Female,African American,,2024-12-11_12h26.02.509,dissOSARI,2023.2.3,Win32,60.60606061,,,,,,,,,,,,,,,,,,,,,,,,,,,,,,,,91.9696,92.8203,92.8203,93.8202,,,,,,0,0.5,,,,,,,,,0,26,26,20,1,,,,,,,,,,,,,,,,,,,,,,,,,,,,,,,,,,,,,,,,,,,,,,,,,,,,,,,,,,,,,,
,,,,,,,,glacier,2,Female,African American,,2024-12-11_12h26.02.509,dissOSARI,2023.2.3,Win32,60.60606061,,,,,,,,,,,,,,,,,,,,,,,,,,,,,,,,93.8204,94.7217,94.7218,95.7222,,,,,,0,0.5,,,,,,,,,0,27,27,31,1,,,,,,,,,,,,,,,,,,,,,,,,,,,,,,,,,,,,,,,,,,,,,,,,,,,,,,,,,,,,,,
,,,,,,,,glacier,2,Female,African American,,2024-12-11_12h26.02.509,dissOSARI,2023.2.3,Win32,60.60606061,,,,,,,,,,,,,,,,,,,,,,,,,,,,,,,,95.7229,96.5403,96.5403,97.5405,,,,,,0,0.5,,,,,,,,,0,28,28,32,1,,,,,,,,,,,,,,,,,,,,,,,,,,,,,,,,,,,,,,,,,,,,,,,,,,,,,,,,,,,,,,
,,,,,,,,glacier,2,Female,African American,,2024-12-11_12h26.02.509,dissOSARI,2023.2.3,Win32,60.60606061,,,,,,,,,,,,,,,,,,,,,,,,,,,,,,,,97.5407,98.3747,98.3747,99.3751,,,,,,0,0.5,,,,,,,,,0,29,29,49,1,,,,,,,,,,,,,,,,,,,,,,,,,,,,,,,,,,,,,,,,,,,,,,,,,,,,,,,,,,,,,,
,,,,,,,,glacier,2,Female,African American,,2024-12-11_12h26.02.509,dissOSARI,2023.2.3,Win32,60.60606061,,,,,,,,,,,,,,,,,,,,,,,,,,,,,,,,99.3756,100.2261,100.2261,101.2271,,,,,,0,0.5,,,,,,,,,0,30,30,41,1,,,,,,,,,,,,,,,,,,,,,,,,,,,,,,,,,,,,,,,,,,,,,,,,,,,,,,,,,,,,,,
,,,,,,,,glacier,2,Female,African American,,2024-12-11_12h26.02.509,dissOSARI,2023.2.3,Win32,60.60606061,,,,,,,,,,,,,,,,,,,,,,,,,,,,,,,,101.2275,102.061,102.061,103.0612,,,,,,0,0.5,,,,,,,,,0,31,31,1,1,,,,,,,,,,,,,,,,,,,,,,,,,,,,,,,,,,,,,,,,,,,,,,,,,,,,,,,,,,,,,,
,,,,,,,,glacier,2,Female,African American,,2024-12-11_12h26.02.509,dissOSARI,2023.2.3,Win32,60.60606061,,,,,,,,,,,,,,,,,,,,,,,,,,,,,,,,103.0616,103.9463,103.9463,104.9459,,,,,,0,0.5,,,,,,,,,0,32,32,12,1,,,,,,,,,,,,,,,,,,,,,,,,,,,,,,,,,,,,,,,,,,,,,,,,,,,,,,,,,,,,,,
,,,,,,,,glacier,2,Female,African American,,2024-12-11_12h26.02.509,dissOSARI,2023.2.3,Win32,60.60606061,,,,,,,,,,,,,,,,,,,,,,,,,,,,,,,,104.9461,105.7645,105.7645,106.7642,,,,,,0,0.5,,,,,,,,,0,33,33,4,1,,,,,,,,,,,,,,,,,,,,,,,,,,,,,,,,,,,,,,,,,,,,,,,,,,,,,,,,,,,,,,
,,,,,,,,glacier,2,Female,African American,,2024-12-11_12h26.02.509,dissOSARI,2023.2.3,Win32,60.60606061,,,,,,,,,,,,,,,,,,,,,,,,,,,,,,,,106.7646,107.5993,107.5993,108.5991,,,,,,0,0.5,,,,,,,,,0,34,34,13,1,,,,,,,,,,,,,,,,,,,,,,,,,,,,,,,,,,,,,,,,,,,,,,,,,,,,,,,,,,,,,,
,,,,,,,,glacier,2,Female,African American,,2024-12-11_12h26.02.509,dissOSARI,2023.2.3,Win32,60.60606061,,,,,,,,,,,,,,,,,,,,,,,,,,,,,,,,108.5995,109.4174,109.4174,110.4174,,,,,,0,0.5,,,,,,,,,0,35,35,7,1,,,,,,,,,,,,,,,,,,,,,,,,,,,,,,,,,,,,,,,,,,,,,,,,,,,,,,,,,,,,,,
,,,,,,,,glacier,2,Female,African American,,2024-12-11_12h26.02.509,dissOSARI,2023.2.3,Win32,60.60606061,,,,,,,,,,,,,,,,,,,,,,,,,,,,,,,,110.4181,111.2857,111.2857,112.2857,,,,,,0,0.5,,,,,,,,,0,36,36,23,1,,,,,,,,,,,,,,,,,,,,,,,,,,,,,,,,,,,,,,,,,,,,,,,,,,,,,,,,,,,,,,
,,,,,,,,glacier,2,Female,African American,,2024-12-11_12h26.02.509,dissOSARI,2023.2.3,Win32,60.60606061,,,,,,,,,,,,,,,,,,,,,,,,,,,,,,,,112.2863,113.3041,113.3041,114.3042,,,,,,0,0.5,,,,,,,,,0,37,37,43,1,,,,,,,,,,,,,,,,,,,,,,,,,,,,,,,,,,,,,,,,,,,,,,,,,,,,,,,,,,,,,,
,,,,,,,,glacier,2,Female,African American,,2024-12-11_12h26.02.509,dissOSARI,2023.2.3,Win32,60.60606061,,,,,,,,,,,,,,,,,,,,,,,,,,,,,,,,114.3045,115.4057,115.4057,116.4055,,,,,,0,0.5,,,,,,,,,0,38,38,48,1,,,,,,,,,,,,,,,,,,,,,,,,,,,,,,,,,,,,,,,,,,,,,,,,,,,,,,,,,,,,,,
,,,,,,,,glacier,2,Female,African American,,2024-12-11_12h26.02.509,dissOSARI,2023.2.3,Win32,60.60606061,,,,,,,,,,,,,,,,,,,,,,,,,,,,,,,,116.406,117.307,117.307,118.3073,,,,,,0,0.5,,,,,,,,,0,39,39,44,1,,,,,,,,,,,,,,,,,,,,,,,,,,,,,,,,,,,,,,,,,,,,,,,,,,,,,,,,,,,,,,
,,,,,,,,glacier,2,Female,African American,,2024-12-11_12h26.02.509,dissOSARI,2023.2.3,Win32,60.60606061,,,,,,,,,,,,,,,,,,,,,,,,,,,,,,,,118.3081,119.1587,119.1588,120.1589,,,,,,0,0.5,,,,,,,,,0,40,40,8,1,,,,,,,,,,,,,,,,,,,,,,,,,,,,,,,,,,,,,,,,,,,,,,,,,,,,,,,,,,,,,,
,,,,,,,,glacier,2,Female,African American,,2024-12-11_12h26.02.509,dissOSARI,2023.2.3,Win32,60.60606061,,,,,,,,,,,,,,,,,,,,,,,,,,,,,,,,120.1599,121.0771,121.0771,122.0773,,,,,,0,0.5,,,,,,,,,0,41,41,16,1,,,,,,,,,,,,,,,,,,,,,,,,,,,,,,,,,,,,,,,,,,,,,,,,,,,,,,,,,,,,,,
,,,,,,,,glacier,2,Female,African American,,2024-12-11_12h26.02.509,dissOSARI,2023.2.3,Win32,60.60606061,,,,,,,,,,,,,,,,,,,,,,,,,,,,,,,,122.0775,122.978,122.978,123.9785,,,,,,0,0.5,,,,,,,,,0,42,42,21,1,,,,,,,,,,,,,,,,,,,,,,,,,,,,,,,,,,,,,,,,,,,,,,,,,,,,,,,,,,,,,,
,,,,,,,,glacier,2,Female,African American,,2024-12-11_12h26.02.509,dissOSARI,2023.2.3,Win32,60.60606061,,,,,,,,,,,,,,,,,,,,,,,,,,,,,,,,123.9789,124.9293,124.9293,125.9305,,,,,,0,0.5,,,,,,,,,0,43,43,39,1,,,,,,,,,,,,,,,,,,,,,,,,,,,,,,,,,,,,,,,,,,,,,,,,,,,,,,,,,,,,,,
,,,,,,,,glacier,2,Female,African American,,2024-12-11_12h26.02.509,dissOSARI,2023.2.3,Win32,60.60606061,,,,,,,,,,,,,,,,,,,,,,,,,,,,,,,,125.9314,126.9486,126.9486,127.9487,,,,,,0,0.5,,,,,,,,,0,44,44,29,1,,,,,,,,,,,,,,,,,,,,,,,,,,,,,,,,,,,,,,,,,,,,,,,,,,,,,,,,,,,,,,
,,,,,,,,glacier,2,Female,African American,,2024-12-11_12h26.02.509,dissOSARI,2023.2.3,Win32,60.60606061,,,,,,,,,,,,,,,,,,,,,,,,,,,,,,,,127.9492,128.8833,128.8833,129.8837,,,,,,0,0.5,,,,,,,,,0,45,45,45,1,,,,,,,,,,,,,,,,,,,,,,,,,,,,,,,,,,,,,,,,,,,,,,,,,,,,,,,,,,,,,,
,,,,,,,,glacier,2,Female,African American,,2024-12-11_12h26.02.509,dissOSARI,2023.2.3,Win32,60.60606061,,,,,,,,,,,,,,,,,,,,,,,,,,,,,,,,129.8843,130.7342,130.7343,131.7349,,,,,,0,0.5,,,,,,,,,0,46,46,37,1,,,,,,,,,,,,,,,,,,,,,,,,,,,,,,,,,,,,,,,,,,,,,,,,,,,,,,,,,,,,,,
,,,,,,,,glacier,2,Female,African American,,2024-12-11_12h26.02.509,dissOSARI,2023.2.3,Win32,60.60606061,,,,,,,,,,,,,,,,,,,,,,,,,,,,,,,,131.7353,132.5195,132.5196,133.5199,,,,,,0,0.5,,,,,,,,,0,47,47,40,1,,,,,,,,,,,,,,,,,,,,,,,,,,,,,,,,,,,,,,,,,,,,,,,,,,,,,,,,,,,,,,
,,,,,,,,glacier,2,Female,African American,,2024-12-11_12h26.02.509,dissOSARI,2023.2.3,Win32,60.60606061,,,,,,,,,,,,,,,,,,,,,,,,,,,,,,,,133.5203,134.9713,134.9713,135.9718,,,,,,0,0.5,,,,,,,,,0,48,48,36,1,,,,,,,,,,,,,,,,,,,,,,,,,,,,,,,,,,,,,,,,,,,,,,,,,,,,,,,,,,,,,,
,,,,,,,,glacier,2,Female,African American,,2024-12-11_12h26.02.509,dissOSARI,2023.2.3,Win32,60.60606061,,,,,,,,,,,,,,,,,,,,,,,,,,,,,,,,135.9722,141.1269,141.127,142.1268,,,,,,0,0.5,,,,,,,,,0,49,49,27,1,,,,,,,,,,,,,,,,,,,,,,,,,,,,,,,,,,,,,,,,,,,,,,,,,,,,,,,,,,,,,,
,,,,,,,,glacier,2,Female,African American,,2024-12-11_12h26.02.509,dissOSARI,2023.2.3,Win32,60.60606061,,,,,,,,,,,,,,,,,,,,,,,,,,,,,,,,,,,,,,,,,,,,,,,,,,,,,,,,142.1273,148.4491,0.362528561,-0.388804265,1,0,0,5.5711,,,,,,,,,,,,,,,,,,,,,,,,,,,,,,,,,,,,,,,,,,,,,,,,,,,,,,
,,,,,,,,glacier,2,Female,African American,,2024-12-11_12h26.02.509,dissOSARI,2023.2.3,Win32,60.60606061,,,,,,,,,,,,,,,,,,,,,,,,,,,,,,,,,,,,,,,,,,,,,,,,,,,,,,,,,,,,,,,,148.4494,149.6835,0.362528561,-0.388804265,1,0,0,0.9675,,,,,,,,,,,,,,,,,,,,,,,,,,,,,,,,,,,,,,,,,,,,,,
,,,,,,,,glacier,2,Female,African American,,2024-12-11_12h26.02.509,dissOSARI,2023.2.3,Win32,60.60606061,,,,,,,,,,,,,,,,,,,,,,,,,,,,,,,,,,,,,,,,,,,,,,,,,,,,,,,,,,,,,,,,,,,,,,,,149.6836,151.0847,0.362528561,-0.388804265,1,0,0,1.1343,,,,,,,,,,,,,,,,,,,,,,,,,,,,,,,,,,,,,,
,,,,,,,,glacier,2,Female,African American,,2024-12-11_12h26.02.509,dissOSARI,2023.2.3,Win32,60.60606061,,,,,,,,,,,,,,,,,,,,,,,,,,,,,,,,,,,,,,,,,,,,,,,,,,,,,,,,,,,,,,,,,,,,,,,,,,,,,,,,151.0849,188.0147,0.298552932,-0.418507235,1,0,0,36.6633,,,,,,,,,,,,,,,,,,,,,,,,,,,,,,
,,,,,,,,glacier,2,Female,African American,,2024-12-11_12h26.02.509,dissOSARI,2023.2.3,Win32,60.60606061,,,,,,,,,,,,,,,,,,,,,,,,,,,,,,,,188.0167,190.334,190.3341,191.3344,,,,,,1,0.5,,,,,,,,,,,,,,,,,,,,,,,,,,,,,,,,,,,,,,,,,,,,,,0,0,0,4,1,,,,,,,,,,,,,,,,,,,,,,,,,
,,,,,,,,glacier,2,Female,African American,,2024-12-11_12h26.02.509,dissOSARI,2023.2.3,Win32,60.60606061,,,,,,,,,,,,,,,,,,,,,,,,,,,,,,,,191.3348,193.1693,193.1694,194.1699,,,,,,0,0.5,,,,,,,,,,,,,,,,,,,,,,,,,,,,,,,,,,,,,,,,,,,,,,0,1,1,6,1,,,,,,,,,,,,,,,,,,,,,,,,,
,,,,,,,,glacier,2,Female,African American,,2024-12-11_12h26.02.509,dissOSARI,2023.2.3,Win32,60.60606061,,,,,,,,,,,,,,,,,,,,,,,,,,,,,,,,194.1703,195.2374,195.2374,196.2384,,,,,,0,0.5,,,,,,,,,,,,,,,,,,,,,,,,,,,,,,,,,,,,,,,,,,,,,,0,2,2,7,1,,,,,,,,,,,,,,,,,,,,,,,,,
,,,,,,,,glacier,2,Female,African American,,2024-12-11_12h26.02.509,dissOSARI,2023.2.3,Win32,60.60606061,,,,,,,,,,,,,,,,,,,,,,,,,,,,,,,,196.2388,197.3066,197.3066,198.3067,,,,,,0,0.5,,,,,,,,,,,,,,,,,,,,,,,,,,,,,,,,,,,,,,,,,,,,,,0,3,3,8,1,,,,,,,,,,,,,,,,,,,,,,,,,
,,,,,,,,glacier,2,Female,African American,,2024-12-11_12h26.02.509,dissOSARI,2023.2.3,Win32,60.60606061,,,,,,,,,,,,,,,,,,,,,,,,,,,,,,,,198.3073,199.4916,199.4916,200.4916,,,,,,0,0.5,,,,,,,,,,,,,,,,,,,,,,,,,,,,,,,,,,,,,,,,,,,,,,0,4,4,5,1,,,,,,,,,,,,,,,,,,,,,,,,,
,,,,,,,,glacier,2,Female,African American,,2024-12-11_12h26.02.509,dissOSARI,2023.2.3,Win32,60.60606061,,,,,,,,,,,,,,,,,,,,,,,,,,,,,,,,200.4919,201.6602,201.6602,202.6607,,,,,,0,0.5,,,,,,,,,,,,,,,,,,,,,,,,,,,,,,,,,,,,,,,,,,,,,,0,5,5,9,1,,,,,,,,,,,,,,,,,,,,,,,,,
,,,,,,,,glacier,2,Female,African American,,2024-12-11_12h26.02.509,dissOSARI,2023.2.3,Win32,60.60606061,,,,,,,,,,,,,,,,,,,,,,,,,,,,,,,,202.6616,203.9123,203.9123,204.9118,,,,,,1,0.5,,,,,,,,,,,,,,,,,,,,,,,,,,,,,,,,,,,,,,,,,,,,,,0,6,6,1,1,,,,,,,,,,,,,,,,,,,,,,,,,
,,,,,,,,glacier,2,Female,African American,,2024-12-11_12h26.02.509,dissOSARI,2023.2.3,Win32,60.60606061,,,,,,,,,,,,,,,,,,,,,,,,,,,,,,,,204.9121,205.1622,205.1623,206.1633,,,,,,1,0.5,,,,,,,,,,,,,,,,,,,,,,,,,,,,,,,,,,,,,,,,,,,,,,0,7,7,2,1,,,,,,,,,,,,,,,,,,,,,,,,,
,,,,,,,,glacier,2,Female,African American,,2024-12-11_12h26.02.509,dissOSARI,2023.2.3,Win32,60.60606061,,,,,,,,,,,,,,,,,,,,,,,,,,,,,,,,206.1637,207.1813,207.1813,208.1818,,,,,,1,0.5,,,,,,,,,,,,,,,,,,,,,,,,,,,,,,,,,,,,,,,,,,,,,,0,8,8,3,1,,,,,,,,,,,,,,,,,,,,,,,,,
,,,,,,,,glacier,2,Female,African American,,2024-12-11_12h26.02.509,dissOSARI,2023.2.3,Win32,60.60606061,,,,,,,,,,,,,,,,,,,,,,,,,,,,,,,,208.1826,209.1998,209.1999,210.1997,,,,,,1,0.5,,,,,,,,,,,,,,,,,,,,,,,,,,,,,,,,,,,,,,,,,,,,,,0,9,9,0,1,,,,,,,,,,,,,,,,,,,,,,,,,
,,,,,,,,glacier,2,Female,African American,,2024-12-11_12h26.02.509,dissOSARI,2023.2.3,Win32,60.60606061,,,,,,,,,,,,,,,,,,,,,,,,,,,,,,,,211.9524,212.0852,212.0852,213.0857,,,,,,0,0.5,,,,,,,,,,,,,,,,,,,,,,,,,,,,,,,,,,,,,,,,,,,,,,,,,,,210.2015,211.951,0,0,0,23,1,,,,,,,,,,,,,,,,,,
,,,,,,,,glacier,2,Female,African American,,2024-12-11_12h26.02.509,dissOSARI,2023.2.3,Win32,60.60606061,,,,,,,,,,,,,,,,,,,,,,,,,,,,,,,,213.0862,214.6216,214.6216,215.6212,,,,,,1,0.5,,,,,,,,,,,,,,,,,,,,,,,,,,,,,,,,,,,,,,,,,,,,,,,,,,,,,0,1,1,72,1,,,,,,,,,,,,,,,,,,
,,,,,,,,glacier,2,Female,African American,,2024-12-11_12h26.02.509,dissOSARI,2023.2.3,Win32,60.60606061,,,,,,,,,,,,,,,,,,,,,,,,,,,,,,,,215.6216,216.6393,216.6394,217.6398,,,,,,1,0.5,,,,,,,,,,,,,,,,,,,,,,,,,,,,,,,,,,,,,,,,,,,,,,,,,,,,,0,2,2,76,1,,,,,,,,,,,,,,,,,,
,,,,,,,,glacier,2,Female,African American,,2024-12-11_12h26.02.509,dissOSARI,2023.2.3,Win32,60.60606061,,,,,,,,,,,,,,,,,,,,,,,,,,,,,,,,217.6406,218.5574,218.5575,219.5575,,,,,,0,0.5,,,,,,,,,,,,,,,,,,,,,,,,,,,,,,,,,,,,,,,,,,,,,,,,,,,,,0,3,3,40,1,,,,,,,,,,,,,,,,,,
,,,,,,,,glacier,2,Female,African American,,2024-12-11_12h26.02.509,dissOSARI,2023.2.3,Win32,60.60606061,,,,,,,,,,,,,,,,,,,,,,,,,,,,,,,,219.5579,220.876,220.876,221.8765,,,,,,1,0.5,,,,,,,,,,,,,,,,,,,,,,,,,,,,,,,,,,,,,,,,,,,,,,,,,,,,,0,4,4,71,1,,,,,,,,,,,,,,,,,,
,,,,,,,,glacier,2,Female,African American,,2024-12-11_12h26.02.509,dissOSARI,2023.2.3,Win32,60.60606061,,,,,,,,,,,,,,,,,,,,,,,,,,,,,,,,221.8772,222.7443,222.7444,223.7448,,,,,,0,0.5,,,,,,,,,,,,,,,,,,,,,,,,,,,,,,,,,,,,,,,,,,,,,,,,,,,,,0,5,5,55,1,,,,,,,,,,,,,,,,,,
,,,,,,,,glacier,2,Female,African American,,2024-12-11_12h26.02.509,dissOSARI,2023.2.3,Win32,60.60606061,,,,,,,,,,,,,,,,,,,,,,,,,,,,,,,,223.7456,224.7961,224.7961,225.7962,,,,,,1,0.5,,,,,,,,,,,,,,,,,,,,,,,,,,,,,,,,,,,,,,,,,,,,,,,,,,,,,0,6,6,61,1,,,,,,,,,,,,,,,,,,
,,,,,,,,glacier,2,Female,African American,,2024-12-11_12h26.02.509,dissOSARI,2023.2.3,Win32,60.60606061,,,,,,,,,,,,,,,,,,,,,,,,,,,,,,,,225.7966,226.8143,226.8144,227.8145,,,,,,0,0.5,,,,,,,,,,,,,,,,,,,,,,,,,,,,,,,,,,,,,,,,,,,,,,,,,,,,,0,7,7,2,1,,,,,,,,,,,,,,,,,,
,,,,,,,,glacier,2,Female,African American,,2024-12-11_12h26.02.509,dissOSARI,2023.2.3,Win32,60.60606061,,,,,,,,,,,,,,,,,,,,,,,,,,,,,,,,227.8149,228.6826,228.6826,229.6829,,,,,,0,0.5,,,,,,,,,,,,,,,,,,,,,,,,,,,,,,,,,,,,,,,,,,,,,,,,,,,,,0,8,8,11,1,,,,,,,,,,,,,,,,,,
,,,,,,,,glacier,2,Female,African American,,2024-12-11_12h26.02.509,dissOSARI,2023.2.3,Win32,60.60606061,,,,,,,,,,,,,,,,,,,,,,,,,,,,,,,,229.6832,230.8347,230.8347,231.8345,,,,,,1,0.5,,,,,,,,,,,,,,,,,,,,,,,,,,,,,,,,,,,,,,,,,,,,,,,,,,,,,0,9,9,78,1,,,,,,,,,,,,,,,,,,
,,,,,,,,glacier,2,Female,African American,,2024-12-11_12h26.02.509,dissOSARI,2023.2.3,Win32,60.60606061,,,,,,,,,,,,,,,,,,,,,,,,,,,,,,,,231.835,232.6692,232.6692,233.6694,,,,,,0,0.5,,,,,,,,,,,,,,,,,,,,,,,,,,,,,,,,,,,,,,,,,,,,,,,,,,,,,0,10,10,39,1,,,,,,,,,,,,,,,,,,
,,,,,,,,glacier,2,Female,African American,,2024-12-11_12h26.02.509,dissOSARI,2023.2.3,Win32,60.60606061,,,,,,,,,,,,,,,,,,,,,,,,,,,,,,,,233.6699,234.5542,234.5542,235.555,,,,,,0,0.5,,,,,,,,,,,,,,,,,,,,,,,,,,,,,,,,,,,,,,,,,,,,,,,,,,,,,0,11,11,14,1,,,,,,,,,,,,,,,,,,
,,,,,,,,glacier,2,Female,African American,,2024-12-11_12h26.02.509,dissOSARI,2023.2.3,Win32,60.60606061,,,,,,,,,,,,,,,,,,,,,,,,,,,,,,,,235.5553,236.4224,236.4224,237.4227,,,,,,0,0.5,,,,,,,,,,,,,,,,,,,,,,,,,,,,,,,,,,,,,,,,,,,,,,,,,,,,,0,12,12,22,1,,,,,,,,,,,,,,,,,,
,,,,,,,,glacier,2,Female,African American,,2024-12-11_12h26.02.509,dissOSARI,2023.2.3,Win32,60.60606061,,,,,,,,,,,,,,,,,,,,,,,,,,,,,,,,237.423,238.3564,238.3564,239.3575,,,,,,0,0.5,,,,,,,,,,,,,,,,,,,,,,,,,,,,,,,,,,,,,,,,,,,,,,,,,,,,,0,13,13,58,1,,,,,,,,,,,,,,,,,,
,,,,,,,,glacier,2,Female,African American,,2024-12-11_12h26.02.509,dissOSARI,2023.2.3,Win32,60.60606061,,,,,,,,,,,,,,,,,,,,,,,,,,,,,,,,239.358,240.3748,240.3749,241.3756,,,,,,0,0.5,,,,,,,,,,,,,,,,,,,,,,,,,,,,,,,,,,,,,,,,,,,,,,,,,,,,,0,14,14,4,1,,,,,,,,,,,,,,,,,,
,,,,,,,,glacier,2,Female,African American,,2024-12-11_12h26.02.509,dissOSARI,2023.2.3,Win32,60.60606061,,,,,,,,,,,,,,,,,,,,,,,,,,,,,,,,241.3761,242.5441,242.5442,243.5439,,,,,,0,0.5,,,,,,,,,,,,,,,,,,,,,,,,,,,,,,,,,,,,,,,,,,,,,,,,,,,,,0,15,15,33,1,,,,,,,,,,,,,,,,,,
,,,,,,,,glacier,2,Female,African American,,2024-12-11_12h26.02.509,dissOSARI,2023.2.3,Win32,60.60606061,,,,,,,,,,,,,,,,,,,,,,,,,,,,,,,,243.5444,244.7791,244.7791,245.7792,,,,,,1,0.5,,,,,,,,,,,,,,,,,,,,,,,,,,,,,,,,,,,,,,,,,,,,,,,,,,,,,0,16,16,68,1,,,,,,,,,,,,,,,,,,
,,,,,,,,glacier,2,Female,African American,,2024-12-11_12h26.02.509,dissOSARI,2023.2.3,Win32,60.60606061,,,,,,,,,,,,,,,,,,,,,,,,,,,,,,,,245.7797,246.614,246.614,247.6144,,,,,,0,0.5,,,,,,,,,,,,,,,,,,,,,,,,,,,,,,,,,,,,,,,,,,,,,,,,,,,,,0,17,17,36,1,,,,,,,,,,,,,,,,,,
,,,,,,,,glacier,2,Female,African American,,2024-12-11_12h26.02.509,dissOSARI,2023.2.3,Win32,60.60606061,,,,,,,,,,,,,,,,,,,,,,,,,,,,,,,,247.6152,248.649,248.649,249.6491,,,,,,0,0.5,,,,,,,,,,,,,,,,,,,,,,,,,,,,,,,,,,,,,,,,,,,,,,,,,,,,,0,18,18,25,1,,,,,,,,,,,,,,,,,,
,,,,,,,,glacier,2,Female,African American,,2024-12-11_12h26.02.509,dissOSARI,2023.2.3,Win32,60.60606061,,,,,,,,,,,,,,,,,,,,,,,,,,,,,,,,249.6497,250.5842,250.5843,251.5843,,,,,,0,0.5,,,,,,,,,,,,,,,,,,,,,,,,,,,,,,,,,,,,,,,,,,,,,,,,,,,,,0,19,19,16,1,,,,,,,,,,,,,,,,,,
,,,,,,,,glacier,2,Female,African American,,2024-12-11_12h26.02.509,dissOSARI,2023.2.3,Win32,60.60606061,,,,,,,,,,,,,,,,,,,,,,,,,,,,,,,,251.5854,252.602,252.602,253.6023,,,,,,1,0.5,,,,,,,,,,,,,,,,,,,,,,,,,,,,,,,,,,,,,,,,,,,,,,,,,,,,,0,20,20,67,1,,,,,,,,,,,,,,,,,,
,,,,,,,,glacier,2,Female,African American,,2024-12-11_12h26.02.509,dissOSARI,2023.2.3,Win32,60.60606061,,,,,,,,,,,,,,,,,,,,,,,,,,,,,,,,253.6031,254.404,254.404,255.4042,,,,,,0,0.5,,,,,,,,,,,,,,,,,,,,,,,,,,,,,,,,,,,,,,,,,,,,,,,,,,,,,0,21,21,34,1,,,,,,,,,,,,,,,,,,
,,,,,,,,glacier,2,Female,African American,,2024-12-11_12h26.02.509,dissOSARI,2023.2.3,Win32,60.60606061,,,,,,,,,,,,,,,,,,,,,,,,,,,,,,,,255.4047,256.2888,256.2889,257.289,,,,,,0,0.5,,,,,,,,,,,,,,,,,,,,,,,,,,,,,,,,,,,,,,,,,,,,,,,,,,,,,0,22,22,30,1,,,,,,,,,,,,,,,,,,
,,,,,,,,glacier,2,Female,African American,,2024-12-11_12h26.02.509,dissOSARI,2023.2.3,Win32,60.60606061,,,,,,,,,,,,,,,,,,,,,,,,,,,,,,,,257.29,258.1392,258.1392,259.1401,,,,,,0,0.5,,,,,,,,,,,,,,,,,,,,,,,,,,,,,,,,,,,,,,,,,,,,,,,,,,,,,0,23,23,26,1,,,,,,,,,,,,,,,,,,
,,,,,,,,glacier,2,Female,African American,,2024-12-11_12h26.02.509,dissOSARI,2023.2.3,Win32,60.60606061,,,,,,,,,,,,,,,,,,,,,,,,,,,,,,,,259.1405,259.9248,259.9248,260.9252,,,,,,0,0.5,,,,,,,,,,,,,,,,,,,,,,,,,,,,,,,,,,,,,,,,,,,,,,,,,,,,,0,24,24,0,1,,,,,,,,,,,,,,,,,,
,,,,,,,,glacier,2,Female,African American,,2024-12-11_12h26.02.509,dissOSARI,2023.2.3,Win32,60.60606061,,,,,,,,,,,,,,,,,,,,,,,,,,,,,,,,260.9259,261.7597,261.7597,262.7603,,,,,,0,0.5,,,,,,,,,,,,,,,,,,,,,,,,,,,,,,,,,,,,,,,,,,,,,,,,,,,,,0,25,25,51,1,,,,,,,,,,,,,,,,,,
,,,,,,,,glacier,2,Female,African American,,2024-12-11_12h26.02.509,dissOSARI,2023.2.3,Win32,60.60606061,,,,,,,,,,,,,,,,,,,,,,,,,,,,,,,,262.7608,263.6283,263.6283,264.6285,,,,,,0,0.5,,,,,,,,,,,,,,,,,,,,,,,,,,,,,,,,,,,,,,,,,,,,,,,,,,,,,0,26,26,6,1,,,,,,,,,,,,,,,,,,
,,,,,,,,glacier,2,Female,African American,,2024-12-11_12h26.02.509,dissOSARI,2023.2.3,Win32,60.60606061,,,,,,,,,,,,,,,,,,,,,,,,,,,,,,,,264.6293,265.446,265.446,266.4466,,,,,,0,0.5,,,,,,,,,,,,,,,,,,,,,,,,,,,,,,,,,,,,,,,,,,,,,,,,,,,,,0,27,27,48,1,,,,,,,,,,,,,,,,,,
,,,,,,,,glacier,2,Female,African American,,2024-12-11_12h26.02.509,dissOSARI,2023.2.3,Win32,60.60606061,,,,,,,,,,,,,,,,,,,,,,,,,,,,,,,,266.4471,267.2979,267.2979,268.2984,,,,,,0,0.5,,,,,,,,,,,,,,,,,,,,,,,,,,,,,,,,,,,,,,,,,,,,,,,,,,,,,0,28,28,5,1,,,,,,,,,,,,,,,,,,
,,,,,,,,glacier,2,Female,African American,,2024-12-11_12h26.02.509,dissOSARI,2023.2.3,Win32,60.60606061,,,,,,,,,,,,,,,,,,,,,,,,,,,,,,,,268.2993,269.1826,269.1827,270.183,,,,,,0,0.5,,,,,,,,,,,,,,,,,,,,,,,,,,,,,,,,,,,,,,,,,,,,,,,,,,,,,0,29,29,35,1,,,,,,,,,,,,,,,,,,
,,,,,,,,glacier,2,Female,African American,,2024-12-11_12h26.02.509,dissOSARI,2023.2.3,Win32,60.60606061,,,,,,,,,,,,,,,,,,,,,,,,,,,,,,,,270.1837,271.201,271.201,272.2011,,,,,,1,0.5,,,,,,,,,,,,,,,,,,,,,,,,,,,,,,,,,,,,,,,,,,,,,,,,,,,,,0,30,30,63,1,,,,,,,,,,,,,,,,,,
,,,,,,,,glacier,2,Female,African American,,2024-12-11_12h26.02.509,dissOSARI,2023.2.3,Win32,60.60606061,,,,,,,,,,,,,,,,,,,,,,,,,,,,,,,,272.2015,273.0694,273.0694,274.0693,,,,,,0,0.5,,,,,,,,,,,,,,,,,,,,,,,,,,,,,,,,,,,,,,,,,,,,,,,,,,,,,0,31,31,13,1,,,,,,,,,,,,,,,,,,
,,,,,,,,glacier,2,Female,African American,,2024-12-11_12h26.02.509,dissOSARI,2023.2.3,Win32,60.60606061,,,,,,,,,,,,,,,,,,,,,,,,,,,,,,,,274.0697,274.9208,274.9208,275.921,,,,,,0,0.5,,,,,,,,,,,,,,,,,,,,,,,,,,,,,,,,,,,,,,,,,,,,,,,,,,,,,0,32,32,44,1,,,,,,,,,,,,,,,,,,
,,,,,,,,glacier,2,Female,African American,,2024-12-11_12h26.02.509,dissOSARI,2023.2.3,Win32,60.60606061,,,,,,,,,,,,,,,,,,,,,,,,,,,,,,,,275.9216,276.7891,276.7891,277.7891,,,,,,0,0.5,,,,,,,,,,,,,,,,,,,,,,,,,,,,,,,,,,,,,,,,,,,,,,,,,,,,,0,33,33,54,1,,,,,,,,,,,,,,,,,,
,,,,,,,,glacier,2,Female,African American,,2024-12-11_12h26.02.509,dissOSARI,2023.2.3,Win32,60.60606061,,,,,,,,,,,,,,,,,,,,,,,,,,,,,,,,277.7901,278.6239,278.6239,279.624,,,,,,0,0.5,,,,,,,,,,,,,,,,,,,,,,,,,,,,,,,,,,,,,,,,,,,,,,,,,,,,,0,34,34,24,1,,,,,,,,,,,,,,,,,,
,,,,,,,,glacier,2,Female,African American,,2024-12-11_12h26.02.509,dissOSARI,2023.2.3,Win32,60.60606061,,,,,,,,,,,,,,,,,,,,,,,,,,,,,,,,279.6246,280.4086,280.4086,281.4088,,,,,,1,0.5,,,,,,,,,,,,,,,,,,,,,,,,,,,,,,,,,,,,,,,,,,,,,,,,,,,,,0,35,35,62,1,,,,,,,,,,,,,,,,,,
,,,,,,,,glacier,2,Female,African American,,2024-12-11_12h26.02.509,dissOSARI,2023.2.3,Win32,60.60606061,,,,,,,,,,,,,,,,,,,,,,,,,,,,,,,,281.4093,282.2435,282.2437,283.244,,,,,,0,0.5,,,,,,,,,,,,,,,,,,,,,,,,,,,,,,,,,,,,,,,,,,,,,,,,,,,,,0,36,36,46,1,,,,,,,,,,,,,,,,,,
,,,,,,,,glacier,2,Female,African American,,2024-12-11_12h26.02.509,dissOSARI,2023.2.3,Win32,60.60606061,,,,,,,,,,,,,,,,,,,,,,,,,,,,,,,,283.2448,284.0951,284.0951,285.0946,,,,,,0,0.5,,,,,,,,,,,,,,,,,,,,,,,,,,,,,,,,,,,,,,,,,,,,,,,,,,,,,0,37,37,10,1,,,,,,,,,,,,,,,,,,
,,,,,,,,glacier,2,Female,African American,,2024-12-11_12h26.02.509,dissOSARI,2023.2.3,Win32,60.60606061,,,,,,,,,,,,,,,,,,,,,,,,,,,,,,,,285.0948,286.1129,286.1129,287.1136,,,,,,1,0.5,,,,,,,,,,,,,,,,,,,,,,,,,,,,,,,,,,,,,,,,,,,,,,,,,,,,,0,38,38,64,1,,,,,,,,,,,,,,,,,,
,,,,,,,,glacier,2,Female,African American,,2024-12-11_12h26.02.509,dissOSARI,2023.2.3,Win32,60.60606061,,,,,,,,,,,,,,,,,,,,,,,,,,,,,,,,287.1141,287.9646,287.9647,288.9651,,,,,,0,0.5,,,,,,,,,,,,,,,,,,,,,,,,,,,,,,,,,,,,,,,,,,,,,,,,,,,,,0,39,39,7,1,,,,,,,,,,,,,,,,,,
,,,,,,,,glacier,2,Female,African American,,2024-12-11_12h26.02.509,dissOSARI,2023.2.3,Win32,60.60606061,,,,,,,,,,,,,,,,,,,,,,,,,,,,,,,,288.9659,292.1853,292.1853,293.1853,,,,,,0,0.5,,,,,,,,,,,,,,,,,,,,,,,,,,,,,,,,,,,,,,,,,,,,,,,,,,,,,0,40,40,49,1,,,,,,,,,,,,,,,,,,
,,,,,,,,glacier,2,Female,African American,,2024-12-11_12h26.02.509,dissOSARI,2023.2.3,Win32,60.60606061,,,,,,,,,,,,,,,,,,,,,,,,,,,,,,,,293.1858,294.8206,294.8206,295.821,,,,,,0,0.5,,,,,,,,,,,,,,,,,,,,,,,,,,,,,,,,,,,,,,,,,,,,,,,,,,,,,0,41,41,45,1,,,,,,,,,,,,,,,,,,
,,,,,,,,glacier,2,Female,African American,,2024-12-11_12h26.02.509,dissOSARI,2023.2.3,Win32,60.60606061,,,,,,,,,,,,,,,,,,,,,,,,,,,,,,,,295.8221,297.7222,297.7222,298.723,,,,,,0,0.5,,,,,,,,,,,,,,,,,,,,,,,,,,,,,,,,,,,,,,,,,,,,,,,,,,,,,0,42,42,38,1,,,,,,,,,,,,,,,,,,
,,,,,,,,glacier,2,Female,African American,,2024-12-11_12h26.02.509,dissOSARI,2023.2.3,Win32,60.60606061,,,,,,,,,,,,,,,,,,,,,,,,,,,,,,,,298.7236,299.8747,299.8747,300.8747,,,,,,1,0.5,,,,,,,,,,,,,,,,,,,,,,,,,,,,,,,,,,,,,,,,,,,,,,,,,,,,,0,43,43,74,1,,,,,,,,,,,,,,,,,,
,,,,,,,,glacier,2,Female,African American,,2024-12-11_12h26.02.509,dissOSARI,2023.2.3,Win32,60.60606061,,,,,,,,,,,,,,,,,,,,,,,,,,,,,,,,300.8752,300.892,300.8921,301.8922,,,,,,0,0.5,,,,,,,,,,,,,,,,,,,,,,,,,,,,,,,,,,,,,,,,,,,,,,,,,,,,,0,44,44,27,1,,,,,,,,,,,,,,,,,,
,,,,,,,,glacier,2,Female,African American,,2024-12-11_12h26.02.509,dissOSARI,2023.2.3,Win32,60.60606061,,,,,,,,,,,,,,,,,,,,,,,,,,,,,,,,301.8927,302.9272,302.9273,303.9274,,,,,,1,0.5,,,,,,,,,,,,,,,,,,,,,,,,,,,,,,,,,,,,,,,,,,,,,,,,,,,,,0,45,45,65,1,,,,,,,,,,,,,,,,,,
,,,,,,,,glacier,2,Female,African American,,2024-12-11_12h26.02.509,dissOSARI,2023.2.3,Win32,60.60606061,,,,,,,,,,,,,,,,,,,,,,,,,,,,,,,,303.9278,304.8113,304.8113,305.8125,,,,,,0,0.5,,,,,,,,,,,,,,,,,,,,,,,,,,,,,,,,,,,,,,,,,,,,,,,,,,,,,0,46,46,52,1,,,,,,,,,,,,,,,,,,
,,,,,,,,glacier,2,Female,African American,,2024-12-11_12h26.02.509,dissOSARI,2023.2.3,Win32,60.60606061,,,,,,,,,,,,,,,,,,,,,,,,,,,,,,,,305.8131,309.8163,309.8163,310.8165,,,,,,0,0.5,,,,,,,,,,,,,,,,,,,,,,,,,,,,,,,,,,,,,,,,,,,,,,,,,,,,,0,47,47,31,1,,,,,,,,,,,,,,,,,,
,,,,,,,,glacier,2,Female,African American,,2024-12-11_12h26.02.509,dissOSARI,2023.2.3,Win32,60.60606061,,,,,,,,,,,,,,,,,,,,,,,,,,,,,,,,310.8171,311.6677,311.6677,312.6682,,,,,,0,0.5,,,,,,,,,,,,,,,,,,,,,,,,,,,,,,,,,,,,,,,,,,,,,,,,,,,,,0,48,48,32,1,,,,,,,,,,,,,,,,,,
,,,,,,,,glacier,2,Female,African American,,2024-12-11_12h26.02.509,dissOSARI,2023.2.3,Win32,60.60606061,,,,,,,,,,,,,,,,,,,,,,,,,,,,,,,,312.6688,313.5523,313.5523,314.5527,,,,,,0,0.5,,,,,,,,,,,,,,,,,,,,,,,,,,,,,,,,,,,,,,,,,,,,,,,,,,,,,0,49,49,21,1,,,,,,,,,,,,,,,,,,
,,,,,,,,glacier,2,Female,African American,,2024-12-11_12h26.02.509,dissOSARI,2023.2.3,Win32,60.60606061,,,,,,,,,,,,,,,,,,,,,,,,,,,,,,,,314.5531,315.421,315.4211,316.421,,,,,,0,0.5,,,,,,,,,,,,,,,,,,,,,,,,,,,,,,,,,,,,,,,,,,,,,,,,,,,,,0,50,50,56,1,,,,,,,,,,,,,,,,,,
,,,,,,,,glacier,2,Female,African American,,2024-12-11_12h26.02.509,dissOSARI,2023.2.3,Win32,60.60606061,,,,,,,,,,,,,,,,,,,,,,,,,,,,,,,,316.4215,317.2056,317.2057,318.2059,,,,,,0,0.5,,,,,,,,,,,,,,,,,,,,,,,,,,,,,,,,,,,,,,,,,,,,,,,,,,,,,0,51,51,17,1,,,,,,,,,,,,,,,,,,
,,,,,,,,glacier,2,Female,African American,,2024-12-11_12h26.02.509,dissOSARI,2023.2.3,Win32,60.60606061,,,,,,,,,,,,,,,,,,,,,,,,,,,,,,,,318.2065,319.3079,319.3079,320.3077,,,,,,1,0.5,,,,,,,,,,,,,,,,,,,,,,,,,,,,,,,,,,,,,,,,,,,,,,,,,,,,,0,52,52,69,1,,,,,,,,,,,,,,,,,,
,,,,,,,,glacier,2,Female,African American,,2024-12-11_12h26.02.509,dissOSARI,2023.2.3,Win32,60.60606061,,,,,,,,,,,,,,,,,,,,,,,,,,,,,,,,320.3083,321.1584,321.1584,322.1589,,,,,,0,0.5,,,,,,,,,,,,,,,,,,,,,,,,,,,,,,,,,,,,,,,,,,,,,,,,,,,,,0,53,53,12,1,,,,,,,,,,,,,,,,,,
,,,,,,,,glacier,2,Female,African American,,2024-12-11_12h26.02.509,dissOSARI,2023.2.3,Win32,60.60606061,,,,,,,,,,,,,,,,,,,,,,,,,,,,,,,,322.1593,323.0438,323.0438,324.0441,,,,,,0,0.5,,,,,,,,,,,,,,,,,,,,,,,,,,,,,,,,,,,,,,,,,,,,,,,,,,,,,0,54,54,37,1,,,,,,,,,,,,,,,,,,
,,,,,,,,glacier,2,Female,African American,,2024-12-11_12h26.02.509,dissOSARI,2023.2.3,Win32,60.60606061,,,,,,,,,,,,,,,,,,,,,,,,,,,,,,,,324.0449,324.8953,324.8954,325.8957,,,,,,0,0.5,,,,,,,,,,,,,,,,,,,,,,,,,,,,,,,,,,,,,,,,,,,,,,,,,,,,,0,55,55,41,1,,,,,,,,,,,,,,,,,,
,,,,,,,,glacier,2,Female,African American,,2024-12-11_12h26.02.509,dissOSARI,2023.2.3,Win32,60.60606061,,,,,,,,,,,,,,,,,,,,,,,,,,,,,,,,325.8964,326.7136,326.7137,327.7136,,,,,,0,0.5,,,,,,,,,,,,,,,,,,,,,,,,,,,,,,,,,,,,,,,,,,,,,,,,,,,,,0,56,56,19,1,,,,,,,,,,,,,,,,,,
,,,,,,,,glacier,2,Female,African American,,2024-12-11_12h26.02.509,dissOSARI,2023.2.3,Win32,60.60606061,,,,,,,,,,,,,,,,,,,,,,,,,,,,,,,,327.7145,328.5984,328.5984,329.5987,,,,,,0,0.5,,,,,,,,,,,,,,,,,,,,,,,,,,,,,,,,,,,,,,,,,,,,,,,,,,,,,0,57,57,42,1,,,,,,,,,,,,,,,,,,
,,,,,,,,glacier,2,Female,African American,,2024-12-11_12h26.02.509,dissOSARI,2023.2.3,Win32,60.60606061,,,,,,,,,,,,,,,,,,,,,,,,,,,,,,,,329.5992,330.4,330.4001,331.3996,,,,,,1,0.5,,,,,,,,,,,,,,,,,,,,,,,,,,,,,,,,,,,,,,,,,,,,,,,,,,,,,0,58,58,73,1,,,,,,,,,,,,,,,,,,
,,,,,,,,glacier,2,Female,African American,,2024-12-11_12h26.02.509,dissOSARI,2023.2.3,Win32,60.60606061,,,,,,,,,,,,,,,,,,,,,,,,,,,,,,,,331.4,332.4182,332.4182,333.4183,,,,,,1,0.5,,,,,,,,,,,,,,,,,,,,,,,,,,,,,,,,,,,,,,,,,,,,,,,,,,,,,0,59,59,79,1,,,,,,,,,,,,,,,,,,
,,,,,,,,glacier,2,Female,African American,,2024-12-11_12h26.02.509,dissOSARI,2023.2.3,Win32,60.60606061,,,,,,,,,,,,,,,,,,,,,,,,,,,,,,,,333.4188,334.2529,334.2529,335.2527,,,,,,0,0.5,,,,,,,,,,,,,,,,,,,,,,,,,,,,,,,,,,,,,,,,,,,,,,,,,,,,,0,60,60,1,1,,,,,,,,,,,,,,,,,,
,,,,,,,,glacier,2,Female,African American,,2024-12-11_12h26.02.509,dissOSARI,2023.2.3,Win32,60.60606061,,,,,,,,,,,,,,,,,,,,,,,,,,,,,,,,335.2529,336.0377,336.0377,337.0381,,,,,,0,0.5,,,,,,,,,,,,,,,,,,,,,,,,,,,,,,,,,,,,,,,,,,,,,,,,,,,,,0,61,61,18,1,,,,,,,,,,,,,,,,,,
,,,,,,,,glacier,2,Female,African American,,2024-12-11_12h26.02.509,dissOSARI,2023.2.3,Win32,60.60606061,,,,,,,,,,,,,,,,,,,,,,,,,,,,,,,,337.0385,338.0732,338.0733,339.0728,,,,,,1,0.5,,,,,,,,,,,,,,,,,,,,,,,,,,,,,,,,,,,,,,,,,,,,,,,,,,,,,0,62,62,77,1,,,,,,,,,,,,,,,,,,
,,,,,,,,glacier,2,Female,African American,,2024-12-11_12h26.02.509,dissOSARI,2023.2.3,Win32,60.60606061,,,,,,,,,,,,,,,,,,,,,,,,,,,,,,,,339.0732,339.8579,339.8579,340.858,,,,,,0,0.5,,,,,,,,,,,,,,,,,,,,,,,,,,,,,,,,,,,,,,,,,,,,,,,,,,,,,0,63,63,20,1,,,,,,,,,,,,,,,,,,
,,,,,,,,glacier,2,Female,African American,,2024-12-11_12h26.02.509,dissOSARI,2023.2.3,Win32,60.60606061,,,,,,,,,,,,,,,,,,,,,,,,,,,,,,,,340.8587,341.7259,341.726,342.7262,,,,,,0,0.5,,,,,,,,,,,,,,,,,,,,,,,,,,,,,,,,,,,,,,,,,,,,,,,,,,,,,0,64,64,8,1,,,,,,,,,,,,,,,,,,
,,,,,,,,glacier,2,Female,African American,,2024-12-11_12h26.02.509,dissOSARI,2023.2.3,Win32,60.60606061,,,,,,,,,,,,,,,,,,,,,,,,,,,,,,,,342.7265,343.644,343.644,344.6444,,,,,,1,0.5,,,,,,,,,,,,,,,,,,,,,,,,,,,,,,,,,,,,,,,,,,,,,,,,,,,,,0,65,65,75,1,,,,,,,,,,,,,,,,,,
,,,,,,,,glacier,2,Female,African American,,2024-12-11_12h26.02.509,dissOSARI,2023.2.3,Win32,60.60606061,,,,,,,,,,,,,,,,,,,,,,,,,,,,,,,,344.6448,345.479,345.479,346.4789,,,,,,0,0.5,,,,,,,,,,,,,,,,,,,,,,,,,,,,,,,,,,,,,,,,,,,,,,,,,,,,,0,66,66,15,1,,,,,,,,,,,,,,,,,,
,,,,,,,,glacier,2,Female,African American,,2024-12-11_12h26.02.509,dissOSARI,2023.2.3,Win32,60.60606061,,,,,,,,,,,,,,,,,,,,,,,,,,,,,,,,346.4791,347.6641,347.6641,348.6642,,,,,,1,0.5,,,,,,,,,,,,,,,,,,,,,,,,,,,,,,,,,,,,,,,,,,,,,,,,,,,,,0,67,67,66,1,,,,,,,,,,,,,,,,,,
,,,,,,,,glacier,2,Female,African American,,2024-12-11_12h26.02.509,dissOSARI,2023.2.3,Win32,60.60606061,,,,,,,,,,,,,,,,,,,,,,,,,,,,,,,,348.6648,349.516,349.5161,350.5159,,,,,,0,0.5,,,,,,,,,,,,,,,,,,,,,,,,,,,,,,,,,,,,,,,,,,,,,,,,,,,,,0,68,68,29,1,,,,,,,,,,,,,,,,,,
,,,,,,,,glacier,2,Female,African American,,2024-12-11_12h26.02.509,dissOSARI,2023.2.3,Win32,60.60606061,,,,,,,,,,,,,,,,,,,,,,,,,,,,,,,,350.5164,351.5007,351.5008,352.501,,,,,,0,0.5,,,,,,,,,,,,,,,,,,,,,,,,,,,,,,,,,,,,,,,,,,,,,,,,,,,,,0,69,69,50,1,,,,,,,,,,,,,,,,,,
,,,,,,,,glacier,2,Female,African American,,2024-12-11_12h26.02.509,dissOSARI,2023.2.3,Win32,60.60606061,,,,,,,,,,,,,,,,,,,,,,,,,,,,,,,,352.5018,353.8017,353.8017,354.8023,,,,,,1,0.5,,,,,,,,,,,,,,,,,,,,,,,,,,,,,,,,,,,,,,,,,,,,,,,,,,,,,0,70,70,60,1,,,,,,,,,,,,,,,,,,
,,,,,,,,glacier,2,Female,African American,,2024-12-11_12h26.02.509,dissOSARI,2023.2.3,Win32,60.60606061,,,,,,,,,,,,,,,,,,,,,,,,,,,,,,,,354.8027,355.6709,355.6709,356.6708,,,,,,0,0.5,,,,,,,,,,,,,,,,,,,,,,,,,,,,,,,,,,,,,,,,,,,,,,,,,,,,,0,71,71,57,1,,,,,,,,,,,,,,,,,,
,,,,,,,,glacier,2,Female,African American,,2024-12-11_12h26.02.509,dissOSARI,2023.2.3,Win32,60.60606061,,,,,,,,,,,,,,,,,,,,,,,,,,,,,,,,356.6713,357.9561,357.9561,358.9562,,,,,,0,0.5,,,,,,,,,,,,,,,,,,,,,,,,,,,,,,,,,,,,,,,,,,,,,,,,,,,,,0,72,72,3,1,,,,,,,,,,,,,,,,,,
,,,,,,,,glacier,2,Female,African American,,2024-12-11_12h26.02.509,dissOSARI,2023.2.3,Win32,60.60606061,,,,,,,,,,,,,,,,,,,,,,,,,,,,,,,,358.9567,359.9909,359.9909,360.9908,,,,,,0,0.5,,,,,,,,,,,,,,,,,,,,,,,,,,,,,,,,,,,,,,,,,,,,,,,,,,,,,0,73,73,43,1,,,,,,,,,,,,,,,,,,
,,,,,,,,glacier,2,Female,African American,,2024-12-11_12h26.02.509,dissOSARI,2023.2.3,Win32,60.60606061,,,,,,,,,,,,,,,,,,,,,,,,,,,,,,,,360.9915,362.2254,362.2254,363.2261,,,,,,0,0.5,,,,,,,,,,,,,,,,,,,,,,,,,,,,,,,,,,,,,,,,,,,,,,,,,,,,,0,74,74,47,1,,,,,,,,,,,,,,,,,,
,,,,,,,,glacier,2,Female,African American,,2024-12-11_12h26.02.509,dissOSARI,2023.2.3,Win32,60.60606061,,,,,,,,,,,,,,,,,,,,,,,,,,,,,,,,363.2266,364.261,364.261,365.2608,,,,,,0,0.5,,,,,,,,,,,,,,,,,,,,,,,,,,,,,,,,,,,,,,,,,,,,,,,,,,,,,0,75,75,28,1,,,,,,,,,,,,,,,,,,
,,,,,,,,glacier,2,Female,African American,,2024-12-11_12h26.02.509,dissOSARI,2023.2.3,Win32,60.60606061,,,,,,,,,,,,,,,,,,,,,,,,,,,,,,,,365.2611,366.5303,366.5303,367.5299,,,,,,1,0.5,,,,,,,,,,,,,,,,,,,,,,,,,,,,,,,,,,,,,,,,,,,,,,,,,,,,,0,76,76,70,1,,,,,,,,,,,,,,,,,,
,,,,,,,,glacier,2,Female,African American,,2024-12-11_12h26.02.509,dissOSARI,2023.2.3,Win32,60.60606061,,,,,,,,,,,,,,,,,,,,,,,,,,,,,,,,367.5305,368.3981,368.3981,369.3981,,,,,,0,0.5,,,,,,,,,,,,,,,,,,,,,,,,,,,,,,,,,,,,,,,,,,,,,,,,,,,,,0,77,77,9,1,,,,,,,,,,,,,,,,,,
,,,,,,,,glacier,2,Female,African American,,2024-12-11_12h26.02.509,dissOSARI,2023.2.3,Win32,60.60606061,,,,,,,,,,,,,,,,,,,,,,,,,,,,,,,,369.3986,370.3991,370.3992,371.3998,,,,,,0,0.5,,,,,,,,,,,,,,,,,,,,,,,,,,,,,,,,,,,,,,,,,,,,,,,,,,,,,0,78,78,59,1,,,,,,,,,,,,,,,,,,
,,,,,,,,glacier,2,Female,African American,,2024-12-11_12h26.02.509,dissOSARI,2023.2.3,Win32,60.60606061,,,,,,,,,,,,,,,,,,,,,,,,,,,,,,,,371.4002,372.5513,372.5513,373.5513,,,,,,0,0.5,,,,,,,,,,,,,,,,,,,,,,,,,,,,,,,,,,,,,,,,,,,,,,,,,,,,,0,79,79,53,1,,,,,,,,,,,,,,,,,,
,,,,,,,,glacier,2,Female,African American,,2024-12-11_12h26.02.509,dissOSARI,2023.2.3,Win32,60.60606061,,,,,,,,,,,,,,,,,,,,,,,,,,,,,,,,376.14,376.221,376.221,377.2213,,,,,,1,0.5,,,,,,,,,,,,,,,,,,,,,,,,,,,,,,,,,,,,,,,,,,,,,,,,,,,373.552,376.1371,0,0,0,62,1,,,,,,,,,,,,,,,,,,
,,,,,,,,glacier,2,Female,African American,,2024-12-11_12h26.02.509,dissOSARI,2023.2.3,Win32,60.60606061,,,,,,,,,,,,,,,,,,,,,,,,,,,,,,,,377.2219,378.1895,378.1895,379.1899,,,,,,0,0.5,,,,,,,,,,,,,,,,,,,,,,,,,,,,,,,,,,,,,,,,,,,,,,,,,,,,,0,1,1,13,1,,,,,,,,,,,,,,,,,,
,,,,,,,,glacier,2,Female,African American,,2024-12-11_12h26.02.509,dissOSARI,2023.2.3,Win32,60.60606061,,,,,,,,,,,,,,,,,,,,,,,,,,,,,,,,379.1904,380.2741,380.2741,381.2742,,,,,,0,0.5,,,,,,,,,,,,,,,,,,,,,,,,,,,,,,,,,,,,,,,,,,,,,,,,,,,,,0,2,2,0,1,,,,,,,,,,,,,,,,,,
,,,,,,,,glacier,2,Female,African American,,2024-12-11_12h26.02.509,dissOSARI,2023.2.3,Win32,60.60606061,,,,,,,,,,,,,,,,,,,,,,,,,,,,,,,,381.2746,382.3427,382.3427,383.3431,,,,,,0,0.5,,,,,,,,,,,,,,,,,,,,,,,,,,,,,,,,,,,,,,,,,,,,,,,,,,,,,0,3,3,20,1,,,,,,,,,,,,,,,,,,
,,,,,,,,glacier,2,Female,African American,,2024-12-11_12h26.02.509,dissOSARI,2023.2.3,Win32,60.60606061,,,,,,,,,,,,,,,,,,,,,,,,,,,,,,,,383.3437,384.3278,384.3279,385.3276,,,,,,0,0.5,,,,,,,,,,,,,,,,,,,,,,,,,,,,,,,,,,,,,,,,,,,,,,,,,,,,,0,4,4,26,1,,,,,,,,,,,,,,,,,,
,,,,,,,,glacier,2,Female,African American,,2024-12-11_12h26.02.509,dissOSARI,2023.2.3,Win32,60.60606061,,,,,,,,,,,,,,,,,,,,,,,,,,,,,,,,385.3278,386.1957,386.1957,387.1962,,,,,,0,0.5,,,,,,,,,,,,,,,,,,,,,,,,,,,,,,,,,,,,,,,,,,,,,,,,,,,,,0,5,5,39,1,,,,,,,,,,,,,,,,,,
,,,,,,,,glacier,2,Female,African American,,2024-12-11_12h26.02.509,dissOSARI,2023.2.3,Win32,60.60606061,,,,,,,,,,,,,,,,,,,,,,,,,,,,,,,,387.1966,388.1811,388.1811,389.1806,,,,,,0,0.5,,,,,,,,,,,,,,,,,,,,,,,,,,,,,,,,,,,,,,,,,,,,,,,,,,,,,0,6,6,48,1,,,,,,,,,,,,,,,,,,
,,,,,,,,glacier,2,Female,African American,,2024-12-11_12h26.02.509,dissOSARI,2023.2.3,Win32,60.60606061,,,,,,,,,,,,,,,,,,,,,,,,,,,,,,,,389.181,390.1321,390.1321,391.1322,,,,,,0,0.5,,,,,,,,,,,,,,,,,,,,,,,,,,,,,,,,,,,,,,,,,,,,,,,,,,,,,0,7,7,21,1,,,,,,,,,,,,,,,,,,
,,,,,,,,glacier,2,Female,African American,,2024-12-11_12h26.02.509,dissOSARI,2023.2.3,Win32,60.60606061,,,,,,,,,,,,,,,,,,,,,,,,,,,,,,,,391.1325,392.3173,392.3173,393.3172,,,,,,1,0.5,,,,,,,,,,,,,,,,,,,,,,,,,,,,,,,,,,,,,,,,,,,,,,,,,,,,,0,8,8,65,1,,,,,,,,,,,,,,,,,,
,,,,,,,,glacier,2,Female,African American,,2024-12-11_12h26.02.509,dissOSARI,2023.2.3,Win32,60.60606061,,,,,,,,,,,,,,,,,,,,,,,,,,,,,,,,393.3175,394.1359,394.1359,395.1355,,,,,,0,0.5,,,,,,,,,,,,,,,,,,,,,,,,,,,,,,,,,,,,,,,,,,,,,,,,,,,,,0,9,9,10,1,,,,,,,,,,,,,,,,,,
,,,,,,,,glacier,2,Female,African American,,2024-12-11_12h26.02.509,dissOSARI,2023.2.3,Win32,60.60606061,,,,,,,,,,,,,,,,,,,,,,,,,,,,,,,,395.1357,395.971,395.971,396.9707,,,,,,0,0.5,,,,,,,,,,,,,,,,,,,,,,,,,,,,,,,,,,,,,,,,,,,,,,,,,,,,,0,10,10,37,1,,,,,,,,,,,,,,,,,,
,,,,,,,,glacier,2,Female,African American,,2024-12-11_12h26.02.509,dissOSARI,2023.2.3,Win32,60.60606061,,,,,,,,,,,,,,,,,,,,,,,,,,,,,,,,396.971,397.9887,397.9889,398.9892,,,,,,1,0.5,,,,,,,,,,,,,,,,,,,,,,,,,,,,,,,,,,,,,,,,,,,,,,,,,,,,,0,11,11,75,1,,,,,,,,,,,,,,,,,,
,,,,,,,,glacier,2,Female,African American,,2024-12-11_12h26.02.509,dissOSARI,2023.2.3,Win32,60.60606061,,,,,,,,,,,,,,,,,,,,,,,,,,,,,,,,398.9896,399.8905,399.8906,400.8904,,,,,,0,0.5,,,,,,,,,,,,,,,,,,,,,,,,,,,,,,,,,,,,,,,,,,,,,,,,,,,,,0,12,12,31,1,,,,,,,,,,,,,,,,,,
,,,,,,,,glacier,2,Female,African American,,2024-12-11_12h26.02.509,dissOSARI,2023.2.3,Win32,60.60606061,,,,,,,,,,,,,,,,,,,,,,,,,,,,,,,,400.8905,401.8082,401.8082,402.8085,,,,,,0,0.5,,,,,,,,,,,,,,,,,,,,,,,,,,,,,,,,,,,,,,,,,,,,,,,,,,,,,0,13,13,14,1,,,,,,,,,,,,,,,,,,
,,,,,,,,glacier,2,Female,African American,,2024-12-11_12h26.02.509,dissOSARI,2023.2.3,Win32,60.60606061,,,,,,,,,,,,,,,,,,,,,,,,,,,,,,,,402.8088,403.6605,403.6605,404.6607,,,,,,0,0.5,,,,,,,,,,,,,,,,,,,,,,,,,,,,,,,,,,,,,,,,,,,,,,,,,,,,,0,14,14,50,1,,,,,,,,,,,,,,,,,,
,,,,,,,,glacier,2,Female,African American,,2024-12-11_12h26.02.509,dissOSARI,2023.2.3,Win32,60.60606061,,,,,,,,,,,,,,,,,,,,,,,,,,,,,,,,404.6615,405.679,405.679,406.679,,,,,,0,0.5,,,,,,,,,,,,,,,,,,,,,,,,,,,,,,,,,,,,,,,,,,,,,,,,,,,,,0,15,15,30,1,,,,,,,,,,,,,,,,,,
,,,,,,,,glacier,2,Female,African American,,2024-12-11_12h26.02.509,dissOSARI,2023.2.3,Win32,60.60606061,,,,,,,,,,,,,,,,,,,,,,,,,,,,,,,,406.6793,407.6806,407.6807,408.6805,,,,,,0,0.5,,,,,,,,,,,,,,,,,,,,,,,,,,,,,,,,,,,,,,,,,,,,,,,,,,,,,0,16,16,34,1,,,,,,,,,,,,,,,,,,
,,,,,,,,glacier,2,Female,African American,,2024-12-11_12h26.02.509,dissOSARI,2023.2.3,Win32,60.60606061,,,,,,,,,,,,,,,,,,,,,,,,,,,,,,,,408.6812,409.582,409.582,410.5823,,,,,,0,0.5,,,,,,,,,,,,,,,,,,,,,,,,,,,,,,,,,,,,,,,,,,,,,,,,,,,,,0,17,17,33,1,,,,,,,,,,,,,,,,,,
,,,,,,,,glacier,2,Female,African American,,2024-12-11_12h26.02.509,dissOSARI,2023.2.3,Win32,60.60606061,,,,,,,,,,,,,,,,,,,,,,,,,,,,,,,,410.5827,411.417,411.417,412.4171,,,,,,0,0.5,,,,,,,,,,,,,,,,,,,,,,,,,,,,,,,,,,,,,,,,,,,,,,,,,,,,,0,18,18,28,1,,,,,,,,,,,,,,,,,,
,,,,,,,,glacier,2,Female,African American,,2024-12-11_12h26.02.509,dissOSARI,2023.2.3,Win32,60.60606061,,,,,,,,,,,,,,,,,,,,,,,,,,,,,,,,412.4177,413.4359,413.4359,414.4354,,,,,,1,0.5,,,,,,,,,,,,,,,,,,,,,,,,,,,,,,,,,,,,,,,,,,,,,,,,,,,,,0,19,19,76,1,,,,,,,,,,,,,,,,,,
,,,,,,,,glacier,2,Female,African American,,2024-12-11_12h26.02.509,dissOSARI,2023.2.3,Win32,60.60606061,,,,,,,,,,,,,,,,,,,,,,,,,,,,,,,,414.4359,415.4532,415.4533,416.4536,,,,,,1,0.5,,,,,,,,,,,,,,,,,,,,,,,,,,,,,,,,,,,,,,,,,,,,,,,,,,,,,0,20,20,78,1,,,,,,,,,,,,,,,,,,
,,,,,,,,glacier,2,Female,African American,,2024-12-11_12h26.02.509,dissOSARI,2023.2.3,Win32,60.60606061,,,,,,,,,,,,,,,,,,,,,,,,,,,,,,,,416.454,417.4715,417.4716,418.472,,,,,,1,0.5,,,,,,,,,,,,,,,,,,,,,,,,,,,,,,,,,,,,,,,,,,,,,,,,,,,,,0,21,21,79,1,,,,,,,,,,,,,,,,,,
,,,,,,,,glacier,2,Female,African American,,2024-12-11_12h26.02.509,dissOSARI,2023.2.3,Win32,60.60606061,,,,,,,,,,,,,,,,,,,,,,,,,,,,,,,,418.4724,419.2902,419.2902,420.2903,,,,,,0,0.5,,,,,,,,,,,,,,,,,,,,,,,,,,,,,,,,,,,,,,,,,,,,,,,,,,,,,0,22,22,46,1,,,,,,,,,,,,,,,,,,
,,,,,,,,glacier,2,Female,African American,,2024-12-11_12h26.02.509,dissOSARI,2023.2.3,Win32,60.60606061,,,,,,,,,,,,,,,,,,,,,,,,,,,,,,,,420.291,421.3418,421.3418,422.342,,,,,,0,0.5,,,,,,,,,,,,,,,,,,,,,,,,,,,,,,,,,,,,,,,,,,,,,,,,,,,,,0,23,23,51,1,,,,,,,,,,,,,,,,,,
,,,,,,,,glacier,2,Female,African American,,2024-12-11_12h26.02.509,dissOSARI,2023.2.3,Win32,60.60606061,,,,,,,,,,,,,,,,,,,,,,,,,,,,,,,,422.3424,423.3609,423.3611,424.3604,,,,,,1,0.5,,,,,,,,,,,,,,,,,,,,,,,,,,,,,,,,,,,,,,,,,,,,,,,,,,,,,0,24,24,74,1,,,,,,,,,,,,,,,,,,
,,,,,,,,glacier,2,Female,African American,,2024-12-11_12h26.02.509,dissOSARI,2023.2.3,Win32,60.60606061,,,,,,,,,,,,,,,,,,,,,,,,,,,,,,,,424.3608,425.2276,425.2277,426.2285,,,,,,0,0.5,,,,,,,,,,,,,,,,,,,,,,,,,,,,,,,,,,,,,,,,,,,,,,,,,,,,,0,25,25,17,1,,,,,,,,,,,,,,,,,,
,,,,,,,,glacier,2,Female,African American,,2024-12-11_12h26.02.509,dissOSARI,2023.2.3,Win32,60.60606061,,,,,,,,,,,,,,,,,,,,,,,,,,,,,,,,426.2288,427.297,427.2971,428.2972,,,,,,1,0.5,,,,,,,,,,,,,,,,,,,,,,,,,,,,,,,,,,,,,,,,,,,,,,,,,,,,,0,26,26,63,1,,,,,,,,,,,,,,,,,,
,,,,,,,,glacier,2,Female,African American,,2024-12-11_12h26.02.509,dissOSARI,2023.2.3,Win32,60.60606061,,,,,,,,,,,,,,,,,,,,,,,,,,,,,,,,428.2981,429.3151,429.3152,430.3152,,,,,,1,0.5,,,,,,,,,,,,,,,,,,,,,,,,,,,,,,,,,,,,,,,,,,,,,,,,,,,,,0,27,27,70,1,,,,,,,,,,,,,,,,,,
,,,,,,,,glacier,2,Female,African American,,2024-12-11_12h26.02.509,dissOSARI,2023.2.3,Win32,60.60606061,,,,,,,,,,,,,,,,,,,,,,,,,,,,,,,,430.3157,431.1499,431.1499,432.1503,,,,,,0,0.5,,,,,,,,,,,,,,,,,,,,,,,,,,,,,,,,,,,,,,,,,,,,,,,,,,,,,0,28,28,56,1,,,,,,,,,,,,,,,,,,
,,,,,,,,glacier,2,Female,African American,,2024-12-11_12h26.02.509,dissOSARI,2023.2.3,Win32,60.60606061,,,,,,,,,,,,,,,,,,,,,,,,,,,,,,,,432.1511,433.2354,433.2355,434.2354,,,,,,1,0.5,,,,,,,,,,,,,,,,,,,,,,,,,,,,,,,,,,,,,,,,,,,,,,,,,,,,,0,29,29,72,1,,,,,,,,,,,,,,,,,,
,,,,,,,,glacier,2,Female,African American,,2024-12-11_12h26.02.509,dissOSARI,2023.2.3,Win32,60.60606061,,,,,,,,,,,,,,,,,,,,,,,,,,,,,,,,434.2362,435.1525,435.1525,436.153,,,,,,0,0.5,,,,,,,,,,,,,,,,,,,,,,,,,,,,,,,,,,,,,,,,,,,,,,,,,,,,,0,30,30,27,1,,,,,,,,,,,,,,,,,,
,,,,,,,,glacier,2,Female,African American,,2024-12-11_12h26.02.509,dissOSARI,2023.2.3,Win32,60.60606061,,,,,,,,,,,,,,,,,,,,,,,,,,,,,,,,436.1533,437.2549,437.2549,438.2549,,,,,,1,0.5,,,,,,,,,,,,,,,,,,,,,,,,,,,,,,,,,,,,,,,,,,,,,,,,,,,,,0,31,31,64,1,,,,,,,,,,,,,,,,,,
,,,,,,,,glacier,2,Female,African American,,2024-12-11_12h26.02.509,dissOSARI,2023.2.3,Win32,60.60606061,,,,,,,,,,,,,,,,,,,,,,,,,,,,,,,,438.2553,439.0894,439.0894,440.0899,,,,,,0,0.5,,,,,,,,,,,,,,,,,,,,,,,,,,,,,,,,,,,,,,,,,,,,,,,,,,,,,0,32,32,24,1,,,,,,,,,,,,,,,,,,
,,,,,,,,glacier,2,Female,African American,,2024-12-11_12h26.02.509,dissOSARI,2023.2.3,Win32,60.60606061,,,,,,,,,,,,,,,,,,,,,,,,,,,,,,,,440.0903,441.1967,441.1968,442.1917,,,,,,0,0.5,,,,,,,,,,,,,,,,,,,,,,,,,,,,,,,,,,,,,,,,,,,,,,,,,,,,,0,33,33,16,1,,,,,,,,,,,,,,,,,,
,,,,,,,,glacier,2,Female,African American,,2024-12-11_12h26.02.509,dissOSARI,2023.2.3,Win32,60.60606061,,,,,,,,,,,,,,,,,,,,,,,,,,,,,,,,442.1923,443.2095,443.2096,444.2103,,,,,,1,0.5,,,,,,,,,,,,,,,,,,,,,,,,,,,,,,,,,,,,,,,,,,,,,,,,,,,,,0,34,34,60,1,,,,,,,,,,,,,,,,,,
,,,,,,,,glacier,2,Female,African American,,2024-12-11_12h26.02.509,dissOSARI,2023.2.3,Win32,60.60606061,,,,,,,,,,,,,,,,,,,,,,,,,,,,,,,,444.2112,445.0445,445.0446,446.0452,,,,,,0,0.5,,,,,,,,,,,,,,,,,,,,,,,,,,,,,,,,,,,,,,,,,,,,,,,,,,,,,0,35,35,18,1,,,,,,,,,,,,,,,,,,
,,,,,,,,glacier,2,Female,African American,,2024-12-11_12h26.02.509,dissOSARI,2023.2.3,Win32,60.60606061,,,,,,,,,,,,,,,,,,,,,,,,,,,,,,,,446.046,447.0462,447.0463,448.0464,,,,,,0,0.5,,,,,,,,,,,,,,,,,,,,,,,,,,,,,,,,,,,,,,,,,,,,,,,,,,,,,0,36,36,40,1,,,,,,,,,,,,,,,,,,
,,,,,,,,glacier,2,Female,African American,,2024-12-11_12h26.02.509,dissOSARI,2023.2.3,Win32,60.60606061,,,,,,,,,,,,,,,,,,,,,,,,,,,,,,,,448.0467,448.898,448.898,449.8981,,,,,,0,0.5,,,,,,,,,,,,,,,,,,,,,,,,,,,,,,,,,,,,,,,,,,,,,,,,,,,,,0,37,37,29,1,,,,,,,,,,,,,,,,,,
,,,,,,,,glacier,2,Female,African American,,2024-12-11_12h26.02.509,dissOSARI,2023.2.3,Win32,60.60606061,,,,,,,,,,,,,,,,,,,,,,,,,,,,,,,,449.8986,450.9493,450.9493,451.9499,,,,,,1,0.5,,,,,,,,,,,,,,,,,,,,,,,,,,,,,,,,,,,,,,,,,,,,,,,,,,,,,0,38,38,77,1,,,,,,,,,,,,,,,,,,
,,,,,,,,glacier,2,Female,African American,,2024-12-11_12h26.02.509,dissOSARI,2023.2.3,Win32,60.60606061,,,,,,,,,,,,,,,,,,,,,,,,,,,,,,,,451.9503,452.9679,452.9679,453.9679,,,,,,1,0.5,,,,,,,,,,,,,,,,,,,,,,,,,,,,,,,,,,,,,,,,,,,,,,,,,,,,,0,39,39,69,1,,,,,,,,,,,,,,,,,,
,,,,,,,,glacier,2,Female,African American,,2024-12-11_12h26.02.509,dissOSARI,2023.2.3,Win32,60.60606061,,,,,,,,,,,,,,,,,,,,,,,,,,,,,,,,453.9681,454.8021,454.8021,455.8029,,,,,,0,0.5,,,,,,,,,,,,,,,,,,,,,,,,,,,,,,,,,,,,,,,,,,,,,,,,,,,,,0,40,40,22,1,,,,,,,,,,,,,,,,,,
,,,,,,,,glacier,2,Female,African American,,2024-12-11_12h26.02.509,dissOSARI,2023.2.3,Win32,60.60606061,,,,,,,,,,,,,,,,,,,,,,,,,,,,,,,,455.8033,456.6044,456.6044,457.6045,,,,,,0,0.5,,,,,,,,,,,,,,,,,,,,,,,,,,,,,,,,,,,,,,,,,,,,,,,,,,,,,0,41,41,32,1,,,,,,,,,,,,,,,,,,
,,,,,,,,glacier,2,Female,African American,,2024-12-11_12h26.02.509,dissOSARI,2023.2.3,Win32,60.60606061,,,,,,,,,,,,,,,,,,,,,,,,,,,,,,,,457.6048,458.4058,458.4058,459.4059,,,,,,0,0.5,,,,,,,,,,,,,,,,,,,,,,,,,,,,,,,,,,,,,,,,,,,,,,,,,,,,,0,42,42,6,1,,,,,,,,,,,,,,,,,,
,,,,,,,,glacier,2,Female,African American,,2024-12-11_12h26.02.509,dissOSARI,2023.2.3,Win32,60.60606061,,,,,,,,,,,,,,,,,,,,,,,,,,,,,,,,459.4063,460.174,460.174,461.174,,,,,,0,0.5,,,,,,,,,,,,,,,,,,,,,,,,,,,,,,,,,,,,,,,,,,,,,,,,,,,,,0,43,43,11,1,,,,,,,,,,,,,,,,,,
,,,,,,,,glacier,2,Female,African American,,2024-12-11_12h26.02.509,dissOSARI,2023.2.3,Win32,60.60606061,,,,,,,,,,,,,,,,,,,,,,,,,,,,,,,,461.1746,462.1087,462.1087,463.1087,,,,,,0,0.5,,,,,,,,,,,,,,,,,,,,,,,,,,,,,,,,,,,,,,,,,,,,,,,,,,,,,0,44,44,36,1,,,,,,,,,,,,,,,,,,
,,,,,,,,glacier,2,Female,African American,,2024-12-11_12h26.02.509,dissOSARI,2023.2.3,Win32,60.60606061,,,,,,,,,,,,,,,,,,,,,,,,,,,,,,,,463.1089,463.977,463.977,464.9769,,,,,,0,0.5,,,,,,,,,,,,,,,,,,,,,,,,,,,,,,,,,,,,,,,,,,,,,,,,,,,,,0,45,45,9,1,,,,,,,,,,,,,,,,,,
,,,,,,,,glacier,2,Female,African American,,2024-12-11_12h26.02.509,dissOSARI,2023.2.3,Win32,60.60606061,,,,,,,,,,,,,,,,,,,,,,,,,,,,,,,,464.9777,465.8119,465.8119,466.8122,,,,,,0,0.5,,,,,,,,,,,,,,,,,,,,,,,,,,,,,,,,,,,,,,,,,,,,,,,,,,,,,0,46,46,2,1,,,,,,,,,,,,,,,,,,
,,,,,,,,glacier,2,Female,African American,,2024-12-11_12h26.02.509,dissOSARI,2023.2.3,Win32,60.60606061,,,,,,,,,,,,,,,,,,,,,,,,,,,,,,,,466.8125,467.7303,467.7303,468.7306,,,,,,0,0.5,,,,,,,,,,,,,,,,,,,,,,,,,,,,,,,,,,,,,,,,,,,,,,,,,,,,,0,47,47,43,1,,,,,,,,,,,,,,,,,,
,,,,,,,,glacier,2,Female,African American,,2024-12-11_12h26.02.509,dissOSARI,2023.2.3,Win32,60.60606061,,,,,,,,,,,,,,,,,,,,,,,,,,,,,,,,468.731,469.5809,469.581,470.5818,,,,,,0,0.5,,,,,,,,,,,,,,,,,,,,,,,,,,,,,,,,,,,,,,,,,,,,,,,,,,,,,0,48,48,35,1,,,,,,,,,,,,,,,,,,
,,,,,,,,glacier,2,Female,African American,,2024-12-11_12h26.02.509,dissOSARI,2023.2.3,Win32,60.60606061,,,,,,,,,,,,,,,,,,,,,,,,,,,,,,,,470.5825,471.7167,471.7167,472.7169,,,,,,1,0.5,,,,,,,,,,,,,,,,,,,,,,,,,,,,,,,,,,,,,,,,,,,,,,,,,,,,,0,49,49,66,1,,,,,,,,,,,,,,,,,,
,,,,,,,,glacier,2,Female,African American,,2024-12-11_12h26.02.509,dissOSARI,2023.2.3,Win32,60.60606061,,,,,,,,,,,,,,,,,,,,,,,,,,,,,,,,472.7174,473.5349,473.5349,474.5351,,,,,,0,0.5,,,,,,,,,,,,,,,,,,,,,,,,,,,,,,,,,,,,,,,,,,,,,,,,,,,,,0,50,50,54,1,,,,,,,,,,,,,,,,,,
,,,,,,,,glacier,2,Female,African American,,2024-12-11_12h26.02.509,dissOSARI,2023.2.3,Win32,60.60606061,,,,,,,,,,,,,,,,,,,,,,,,,,,,,,,,474.5358,475.4023,475.4023,476.4034,,,,,,0,0.5,,,,,,,,,,,,,,,,,,,,,,,,,,,,,,,,,,,,,,,,,,,,,,,,,,,,,0,51,51,8,1,,,,,,,,,,,,,,,,,,
,,,,,,,,glacier,2,Female,African American,,2024-12-11_12h26.02.509,dissOSARI,2023.2.3,Win32,60.60606061,,,,,,,,,,,,,,,,,,,,,,,,,,,,,,,,476.4038,477.3882,477.3882,478.3881,,,,,,0,0.5,,,,,,,,,,,,,,,,,,,,,,,,,,,,,,,,,,,,,,,,,,,,,,,,,,,,,0,52,52,53,1,,,,,,,,,,,,,,,,,,
,,,,,,,,glacier,2,Female,African American,,2024-12-11_12h26.02.509,dissOSARI,2023.2.3,Win32,60.60606061,,,,,,,,,,,,,,,,,,,,,,,,,,,,,,,,478.3886,479.5732,479.5732,480.5731,,,,,,0,0.5,,,,,,,,,,,,,,,,,,,,,,,,,,,,,,,,,,,,,,,,,,,,,,,,,,,,,0,53,53,59,1,,,,,,,,,,,,,,,,,,
,,,,,,,,glacier,2,Female,African American,,2024-12-11_12h26.02.509,dissOSARI,2023.2.3,Win32,60.60606061,,,,,,,,,,,,,,,,,,,,,,,,,,,,,,,,480.5742,481.9085,481.9085,482.9087,,,,,,1,0.5,,,,,,,,,,,,,,,,,,,,,,,,,,,,,,,,,,,,,,,,,,,,,,,,,,,,,0,54,54,61,1,,,,,,,,,,,,,,,,,,
,,,,,,,,glacier,2,Female,African American,,2024-12-11_12h26.02.509,dissOSARI,2023.2.3,Win32,60.60606061,,,,,,,,,,,,,,,,,,,,,,,,,,,,,,,,482.9091,483.71,483.7101,484.7103,,,,,,0,0.5,,,,,,,,,,,,,,,,,,,,,,,,,,,,,,,,,,,,,,,,,,,,,,,,,,,,,0,55,55,49,1,,,,,,,,,,,,,,,,,,
,,,,,,,,glacier,2,Female,African American,,2024-12-11_12h26.02.509,dissOSARI,2023.2.3,Win32,60.60606061,,,,,,,,,,,,,,,,,,,,,,,,,,,,,,,,484.7108,485.6114,485.6114,486.6116,,,,,,0,0.5,,,,,,,,,,,,,,,,,,,,,,,,,,,,,,,,,,,,,,,,,,,,,,,,,,,,,0,56,56,42,1,,,,,,,,,,,,,,,,,,
,,,,,,,,glacier,2,Female,African American,,2024-12-11_12h26.02.509,dissOSARI,2023.2.3,Win32,60.60606061,,,,,,,,,,,,,,,,,,,,,,,,,,,,,,,,486.6122,487.4465,487.4465,488.4465,,,,,,0,0.5,,,,,,,,,,,,,,,,,,,,,,,,,,,,,,,,,,,,,,,,,,,,,,,,,,,,,0,57,57,23,1,,,,,,,,,,,,,,,,,,
,,,,,,,,glacier,2,Female,African American,,2024-12-11_12h26.02.509,dissOSARI,2023.2.3,Win32,60.60606061,,,,,,,,,,,,,,,,,,,,,,,,,,,,,,,,488.4476,489.4649,489.465,490.4649,,,,,,1,0.5,,,,,,,,,,,,,,,,,,,,,,,,,,,,,,,,,,,,,,,,,,,,,,,,,,,,,0,58,58,73,1,,,,,,,,,,,,,,,,,,
,,,,,,,,glacier,2,Female,African American,,2024-12-11_12h26.02.509,dissOSARI,2023.2.3,Win32,60.60606061,,,,,,,,,,,,,,,,,,,,,,,,,,,,,,,,490.4655,491.283,491.283,492.2831,,,,,,0,0.5,,,,,,,,,,,,,,,,,,,,,,,,,,,,,,,,,,,,,,,,,,,,,,,,,,,,,0,59,59,3,1,,,,,,,,,,,,,,,,,,
,,,,,,,,glacier,2,Female,African American,,2024-12-11_12h26.02.509,dissOSARI,2023.2.3,Win32,60.60606061,,,,,,,,,,,,,,,,,,,,,,,,,,,,,,,,492.2835,493.2348,493.2348,494.2347,,,,,,0,0.5,,,,,,,,,,,,,,,,,,,,,,,,,,,,,,,,,,,,,,,,,,,,,,,,,,,,,0,60,60,58,1,,,,,,,,,,,,,,,,,,
,,,,,,,,glacier,2,Female,African American,,2024-12-11_12h26.02.509,dissOSARI,2023.2.3,Win32,60.60606061,,,,,,,,,,,,,,,,,,,,,,,,,,,,,,,,494.2353,495.302,495.302,496.303,,,,,,0,0.5,,,,,,,,,,,,,,,,,,,,,,,,,,,,,,,,,,,,,,,,,,,,,,,,,,,,,0,61,61,47,1,,,,,,,,,,,,,,,,,,
,,,,,,,,glacier,2,Female,African American,,2024-12-11_12h26.02.509,dissOSARI,2023.2.3,Win32,60.60606061,,,,,,,,,,,,,,,,,,,,,,,,,,,,,,,,496.3033,497.355,497.3551,498.3549,,,,,,1,0.5,,,,,,,,,,,,,,,,,,,,,,,,,,,,,,,,,,,,,,,,,,,,,,,,,,,,,0,62,62,68,1,,,,,,,,,,,,,,,,,,
,,,,,,,,glacier,2,Female,African American,,2024-12-11_12h26.02.509,dissOSARI,2023.2.3,Win32,60.60606061,,,,,,,,,,,,,,,,,,,,,,,,,,,,,,,,498.3554,499.1726,499.1726,500.1726,,,,,,0,0.5,,,,,,,,,,,,,,,,,,,,,,,,,,,,,,,,,,,,,,,,,,,,,,,,,,,,,0,63,63,5,1,,,,,,,,,,,,,,,,,,
,,,,,,,,glacier,2,Female,African American,,2024-12-11_12h26.02.509,dissOSARI,2023.2.3,Win32,60.60606061,,,,,,,,,,,,,,,,,,,,,,,,,,,,,,,,500.1728,501.2575,501.2575,502.2581,,,,,,1,0.5,,,,,,,,,,,,,,,,,,,,,,,,,,,,,,,,,,,,,,,,,,,,,,,,,,,,,0,64,64,71,1,,,,,,,,,,,,,,,,,,
,,,,,,,,glacier,2,Female,African American,,2024-12-11_12h26.02.509,dissOSARI,2023.2.3,Win32,60.60606061,,,,,,,,,,,,,,,,,,,,,,,,,,,,,,,,502.2588,503.1094,503.1094,504.1096,,,,,,0,0.5,,,,,,,,,,,,,,,,,,,,,,,,,,,,,,,,,,,,,,,,,,,,,,,,,,,,,0,65,65,44,1,,,,,,,,,,,,,,,,,,
,,,,,,,,glacier,2,Female,African American,,2024-12-11_12h26.02.509,dissOSARI,2023.2.3,Win32,60.60606061,,,,,,,,,,,,,,,,,,,,,,,,,,,,,,,,504.1101,504.9944,504.9944,505.9944,,,,,,0,0.5,,,,,,,,,,,,,,,,,,,,,,,,,,,,,,,,,,,,,,,,,,,,,,,,,,,,,0,66,66,57,1,,,,,,,,,,,,,,,,,,
,,,,,,,,glacier,2,Female,African American,,2024-12-11_12h26.02.509,dissOSARI,2023.2.3,Win32,60.60606061,,,,,,,,,,,,,,,,,,,,,,,,,,,,,,,,505.9948,506.8458,506.8458,507.8458,,,,,,0,0.5,,,,,,,,,,,,,,,,,,,,,,,,,,,,,,,,,,,,,,,,,,,,,,,,,,,,,0,67,67,55,1,,,,,,,,,,,,,,,,,,
,,,,,,,,glacier,2,Female,African American,,2024-12-11_12h26.02.509,dissOSARI,2023.2.3,Win32,60.60606061,,,,,,,,,,,,,,,,,,,,,,,,,,,,,,,,507.8463,508.7306,508.7306,509.731,,,,,,0,0.5,,,,,,,,,,,,,,,,,,,,,,,,,,,,,,,,,,,,,,,,,,,,,,,,,,,,,0,68,68,12,1,,,,,,,,,,,,,,,,,,
,,,,,,,,glacier,2,Female,African American,,2024-12-11_12h26.02.509,dissOSARI,2023.2.3,Win32,60.60606061,,,,,,,,,,,,,,,,,,,,,,,,,,,,,,,,509.7319,510.6991,510.6991,511.6991,,,,,,0,0.5,,,,,,,,,,,,,,,,,,,,,,,,,,,,,,,,,,,,,,,,,,,,,,,,,,,,,0,69,69,38,1,,,,,,,,,,,,,,,,,,
,,,,,,,,glacier,2,Female,African American,,2024-12-11_12h26.02.509,dissOSARI,2023.2.3,Win32,60.60606061,,,,,,,,,,,,,,,,,,,,,,,,,,,,,,,,511.6995,512.5504,512.5505,513.5506,,,,,,0,0.5,,,,,,,,,,,,,,,,,,,,,,,,,,,,,,,,,,,,,,,,,,,,,,,,,,,,,0,70,70,25,1,,,,,,,,,,,,,,,,,,
,,,,,,,,glacier,2,Female,African American,,2024-12-11_12h26.02.509,dissOSARI,2023.2.3,Win32,60.60606061,,,,,,,,,,,,,,,,,,,,,,,,,,,,,,,,513.5512,514.4017,514.4017,515.4016,,,,,,0,0.5,,,,,,,,,,,,,,,,,,,,,,,,,,,,,,,,,,,,,,,,,,,,,,,,,,,,,0,71,71,4,1,,,,,,,,,,,,,,,,,,
,,,,,,,,glacier,2,Female,African American,,2024-12-11_12h26.02.509,dissOSARI,2023.2.3,Win32,60.60606061,,,,,,,,,,,,,,,,,,,,,,,,,,,,,,,,515.4019,516.4202,516.4203,517.4203,,,,,,0,0.5,,,,,,,,,,,,,,,,,,,,,,,,,,,,,,,,,,,,,,,,,,,,,,,,,,,,,0,72,72,7,1,,,,,,,,,,,,,,,,,,
,,,,,,,,glacier,2,Female,African American,,2024-12-11_12h26.02.509,dissOSARI,2023.2.3,Win32,60.60606061,,,,,,,,,,,,,,,,,,,,,,,,,,,,,,,,517.4207,534.2681,534.2681,535.2683,,,,,,1,0.5,,,,,,,,,,,,,,,,,,,,,,,,,,,,,,,,,,,,,,,,,,,,,,,,,,,,,0,73,73,67,1,,,,,,,,,,,,,,,,,,
,,,,,,,,glacier,2,Female,African American,,2024-12-11_12h26.02.509,dissOSARI,2023.2.3,Win32,60.60606061,,,,,,,,,,,,,,,,,,,,,,,,,,,,,,,,535.2685,536.1035,536.1035,537.1036,,,,,,0,0.5,,,,,,,,,,,,,,,,,,,,,,,,,,,,,,,,,,,,,,,,,,,,,,,,,,,,,0,74,74,45,1,,,,,,,,,,,,,,,,,,
,,,,,,,,glacier,2,Female,African American,,2024-12-11_12h26.02.509,dissOSARI,2023.2.3,Win32,60.60606061,,,,,,,,,,,,,,,,,,,,,,,,,,,,,,,,537.1041,538.3219,538.3219,539.3224,,,,,,0,0.5,,,,,,,,,,,,,,,,,,,,,,,,,,,,,,,,,,,,,,,,,,,,,,,,,,,,,0,75,75,52,1,,,,,,,,,,,,,,,,,,
,,,,,,,,glacier,2,Female,African American,,2024-12-11_12h26.02.509,dissOSARI,2023.2.3,Win32,60.60606061,,,,,,,,,,,,,,,,,,,,,,,,,,,,,,,,539.3233,540.1568,540.1568,541.1572,,,,,,0,0.5,,,,,,,,,,,,,,,,,,,,,,,,,,,,,,,,,,,,,,,,,,,,,,,,,,,,,0,76,76,1,1,,,,,,,,,,,,,,,,,,
,,,,,,,,glacier,2,Female,African American,,2024-12-11_12h26.02.509,dissOSARI,2023.2.3,Win32,60.60606061,,,,,,,,,,,,,,,,,,,,,,,,,,,,,,,,541.1579,541.9414,541.9414,542.9418,,,,,,0,0.5,,,,,,,,,,,,,,,,,,,,,,,,,,,,,,,,,,,,,,,,,,,,,,,,,,,,,0,77,77,41,1,,,,,,,,,,,,,,,,,,
,,,,,,,,glacier,2,Female,African American,,2024-12-11_12h26.02.509,dissOSARI,2023.2.3,Win32,60.60606061,,,,,,,,,,,,,,,,,,,,,,,,,,,,,,,,542.9423,545.7948,545.7948,546.7944,,,,,,0,0.5,,,,,,,,,,,,,,,,,,,,,,,,,,,,,,,,,,,,,,,,,,,,,,,,,,,,,0,78,78,19,1,,,,,,,,,,,,,,,,,,
,,,,,,,,glacier,2,Female,African American,,2024-12-11_12h26.02.509,dissOSARI,2023.2.3,Win32,60.60606061,,,,,,,,,,,,,,,,,,,,,,,,,,,,,,,,546.7948,547.5956,547.5957,548.5963,,,,,,0,0.5,,,,,,,,,,,,,,,,,,,,,,,,,,,,,,,,,,,,,,,,,,,,,,,,,,,,,0,79,79,15,1,,,,,,,,,,,,,,,,,,
,,,,,,,,glacier,2,Female,African American,,2024-12-11_12h26.02.509,dissOSARI,2023.2.3,Win32,60.60606061,,,,,,,,,,,,,,,,,,,,,,,,,,,,,,,,551.3533,551.4494,551.4494,552.4495,,,,,,1,0.5,,,,,,,,,,,,,,,,,,,,,,,,,,,,,,,,,,,,,,,,,,,,,,,,,,,548.5971,551.3491,0,0,0,70,1,,,,,,,,,,,,,,,,,,
,,,,,,,,glacier,2,Female,African American,,2024-12-11_12h26.02.509,dissOSARI,2023.2.3,Win32,60.60606061,,,,,,,,,,,,,,,,,,,,,,,,,,,,,,,,552.4501,553.3173,553.3173,554.3179,,,,,,0,0.5,,,,,,,,,,,,,,,,,,,,,,,,,,,,,,,,,,,,,,,,,,,,,,,,,,,,,0,1,1,49,1,,,,,,,,,,,,,,,,,,
,,,,,,,,glacier,2,Female,African American,,2024-12-11_12h26.02.509,dissOSARI,2023.2.3,Win32,60.60606061,,,,,,,,,,,,,,,,,,,,,,,,,,,,,,,,554.3186,555.2683,555.2683,556.2693,,,,,,1,0.5,,,,,,,,,,,,,,,,,,,,,,,,,,,,,,,,,,,,,,,,,,,,,,,,,,,,,0,2,2,77,1,,,,,,,,,,,,,,,,,,
,,,,,,,,glacier,2,Female,African American,,2024-12-11_12h26.02.509,dissOSARI,2023.2.3,Win32,60.60606061,,,,,,,,,,,,,,,,,,,,,,,,,,,,,,,,556.2698,557.2873,557.2873,558.2877,,,,,,1,0.5,,,,,,,,,,,,,,,,,,,,,,,,,,,,,,,,,,,,,,,,,,,,,,,,,,,,,0,3,3,78,1,,,,,,,,,,,,,,,,,,
,,,,,,,,glacier,2,Female,African American,,2024-12-11_12h26.02.509,dissOSARI,2023.2.3,Win32,60.60606061,,,,,,,,,,,,,,,,,,,,,,,,,,,,,,,,558.2885,559.306,559.3061,560.3084,,,,,,1,0.5,,,,,,,,,,,,,,,,,,,,,,,,,,,,,,,,,,,,,,,,,,,,,,,,,,,,,0,4,4,63,1,,,,,,,,,,,,,,,,,,
,,,,,,,,glacier,2,Female,African American,,2024-12-11_12h26.02.509,dissOSARI,2023.2.3,Win32,60.60606061,,,,,,,,,,,,,,,,,,,,,,,,,,,,,,,,560.3088,561.1233,561.1233,562.1245,,,,,,0,0.5,,,,,,,,,,,,,,,,,,,,,,,,,,,,,,,,,,,,,,,,,,,,,,,,,,,,,0,5,5,40,1,,,,,,,,,,,,,,,,,,
,,,,,,,,glacier,2,Female,African American,,2024-12-11_12h26.02.509,dissOSARI,2023.2.3,Win32,60.60606061,,,,,,,,,,,,,,,,,,,,,,,,,,,,,,,,562.1258,563.1423,563.1424,564.1425,,,,,,1,0.5,,,,,,,,,,,,,,,,,,,,,,,,,,,,,,,,,,,,,,,,,,,,,,,,,,,,,0,6,6,73,1,,,,,,,,,,,,,,,,,,
,,,,,,,,glacier,2,Female,African American,,2024-12-11_12h26.02.509,dissOSARI,2023.2.3,Win32,60.60606061,,,,,,,,,,,,,,,,,,,,,,,,,,,,,,,,564.1429,564.9772,564.9772,565.9774,,,,,,0,0.5,,,,,,,,,,,,,,,,,,,,,,,,,,,,,,,,,,,,,,,,,,,,,,,,,,,,,0,7,7,30,1,,,,,,,,,,,,,,,,,,
,,,,,,,,glacier,2,Female,African American,,2024-12-11_12h26.02.509,dissOSARI,2023.2.3,Win32,60.60606061,,,,,,,,,,,,,,,,,,,,,,,,,,,,,,,,565.978,566.9957,566.9957,567.9961,,,,,,1,0.5,,,,,,,,,,,,,,,,,,,,,,,,,,,,,,,,,,,,,,,,,,,,,,,,,,,,,0,8,8,60,1,,,,,,,,,,,,,,,,,,
,,,,,,,,glacier,2,Female,African American,,2024-12-11_12h26.02.509,dissOSARI,2023.2.3,Win32,60.60606061,,,,,,,,,,,,,,,,,,,,,,,,,,,,,,,,567.9971,568.8136,568.8136,569.8136,,,,,,0,0.5,,,,,,,,,,,,,,,,,,,,,,,,,,,,,,,,,,,,,,,,,,,,,,,,,,,,,0,9,9,35,1,,,,,,,,,,,,,,,,,,
,,,,,,,,glacier,2,Female,African American,,2024-12-11_12h26.02.509,dissOSARI,2023.2.3,Win32,60.60606061,,,,,,,,,,,,,,,,,,,,,,,,,,,,,,,,569.8138,570.6153,570.6154,571.6156,,,,,,0,0.5,,,,,,,,,,,,,,,,,,,,,,,,,,,,,,,,,,,,,,,,,,,,,,,,,,,,,0,10,10,1,1,,,,,,,,,,,,,,,,,,
,,,,,,,,glacier,2,Female,African American,,2024-12-11_12h26.02.509,dissOSARI,2023.2.3,Win32,60.60606061,,,,,,,,,,,,,,,,,,,,,,,,,,,,,,,,571.6162,572.4168,572.4169,573.4171,,,,,,0,0.5,,,,,,,,,,,,,,,,,,,,,,,,,,,,,,,,,,,,,,,,,,,,,,,,,,,,,0,11,11,19,1,,,,,,,,,,,,,,,,,,
,,,,,,,,glacier,2,Female,African American,,2024-12-11_12h26.02.509,dissOSARI,2023.2.3,Win32,60.60606061,,,,,,,,,,,,,,,,,,,,,,,,,,,,,,,,573.4178,574.2183,574.2183,575.218,,,,,,0,0.5,,,,,,,,,,,,,,,,,,,,,,,,,,,,,,,,,,,,,,,,,,,,,,,,,,,,,0,12,12,9,1,,,,,,,,,,,,,,,,,,
,,,,,,,,glacier,2,Female,African American,,2024-12-11_12h26.02.509,dissOSARI,2023.2.3,Win32,60.60606061,,,,,,,,,,,,,,,,,,,,,,,,,,,,,,,,575.2183,576.0529,576.0529,577.0532,,,,,,0,0.5,,,,,,,,,,,,,,,,,,,,,,,,,,,,,,,,,,,,,,,,,,,,,,,,,,,,,0,13,13,59,1,,,,,,,,,,,,,,,,,,
,,,,,,,,glacier,2,Female,African American,,2024-12-11_12h26.02.509,dissOSARI,2023.2.3,Win32,60.60606061,,,,,,,,,,,,,,,,,,,,,,,,,,,,,,,,577.0543,577.9537,577.9537,578.9549,,,,,,0,0.5,,,,,,,,,,,,,,,,,,,,,,,,,,,,,,,,,,,,,,,,,,,,,,,,,,,,,0,14,14,25,1,,,,,,,,,,,,,,,,,,
,,,,,,,,glacier,2,Female,African American,,2024-12-11_12h26.02.509,dissOSARI,2023.2.3,Win32,60.60606061,,,,,,,,,,,,,,,,,,,,,,,,,,,,,,,,578.9552,580.0399,580.04,581.0398,,,,,,1,0.5,,,,,,,,,,,,,,,,,,,,,,,,,,,,,,,,,,,,,,,,,,,,,,,,,,,,,0,15,15,64,1,,,,,,,,,,,,,,,,,,
,,,,,,,,glacier,2,Female,African American,,2024-12-11_12h26.02.509,dissOSARI,2023.2.3,Win32,60.60606061,,,,,,,,,,,,,,,,,,,,,,,,,,,,,,,,581.0403,582.0578,582.0579,583.0578,,,,,,1,0.5,,,,,,,,,,,,,,,,,,,,,,,,,,,,,,,,,,,,,,,,,,,,,,,,,,,,,0,16,16,66,1,,,,,,,,,,,,,,,,,,
,,,,,,,,glacier,2,Female,African American,,2024-12-11_12h26.02.509,dissOSARI,2023.2.3,Win32,60.60606061,,,,,,,,,,,,,,,,,,,,,,,,,,,,,,,,583.0581,583.9263,583.9264,584.9268,,,,,,0,0.5,,,,,,,,,,,,,,,,,,,,,,,,,,,,,,,,,,,,,,,,,,,,,,,,,,,,,0,17,17,23,1,,,,,,,,,,,,,,,,,,
,,,,,,,,glacier,2,Female,African American,,2024-12-11_12h26.02.509,dissOSARI,2023.2.3,Win32,60.60606061,,,,,,,,,,,,,,,,,,,,,,,,,,,,,,,,584.9276,585.7605,585.7606,586.7607,,,,,,0,0.5,,,,,,,,,,,,,,,,,,,,,,,,,,,,,,,,,,,,,,,,,,,,,,,,,,,,,0,18,18,52,1,,,,,,,,,,,,,,,,,,
,,,,,,,,glacier,2,Female,African American,,2024-12-11_12h26.02.509,dissOSARI,2023.2.3,Win32,60.60606061,,,,,,,,,,,,,,,,,,,,,,,,,,,,,,,,586.7609,587.5959,587.596,588.5959,,,,,,0,0.5,,,,,,,,,,,,,,,,,,,,,,,,,,,,,,,,,,,,,,,,,,,,,,,,,,,,,0,19,19,39,1,,,,,,,,,,,,,,,,,,
,,,,,,,,glacier,2,Female,African American,,2024-12-11_12h26.02.509,dissOSARI,2023.2.3,Win32,60.60606061,,,,,,,,,,,,,,,,,,,,,,,,,,,,,,,,588.5964,589.4306,589.4307,590.4302,,,,,,0,0.5,,,,,,,,,,,,,,,,,,,,,,,,,,,,,,,,,,,,,,,,,,,,,,,,,,,,,0,20,20,4,1,,,,,,,,,,,,,,,,,,
,,,,,,,,glacier,2,Female,African American,,2024-12-11_12h26.02.509,dissOSARI,2023.2.3,Win32,60.60606061,,,,,,,,,,,,,,,,,,,,,,,,,,,,,,,,590.4304,591.2312,591.2312,592.2322,,,,,,0,0.5,,,,,,,,,,,,,,,,,,,,,,,,,,,,,,,,,,,,,,,,,,,,,,,,,,,,,0,21,21,15,1,,,,,,,,,,,,,,,,,,
,,,,,,,,glacier,2,Female,African American,,2024-12-11_12h26.02.509,dissOSARI,2023.2.3,Win32,60.60606061,,,,,,,,,,,,,,,,,,,,,,,,,,,,,,,,592.2327,593.1003,593.1004,594.1007,,,,,,0,0.5,,,,,,,,,,,,,,,,,,,,,,,,,,,,,,,,,,,,,,,,,,,,,,,,,,,,,0,22,22,47,1,,,,,,,,,,,,,,,,,,
,,,,,,,,glacier,2,Female,African American,,2024-12-11_12h26.02.509,dissOSARI,2023.2.3,Win32,60.60606061,,,,,,,,,,,,,,,,,,,,,,,,,,,,,,,,594.1013,595.1188,595.1188,596.1187,,,,,,1,0.5,,,,,,,,,,,,,,,,,,,,,,,,,,,,,,,,,,,,,,,,,,,,,,,,,,,,,0,23,23,62,1,,,,,,,,,,,,,,,,,,
,,,,,,,,glacier,2,Female,African American,,2024-12-11_12h26.02.509,dissOSARI,2023.2.3,Win32,60.60606061,,,,,,,,,,,,,,,,,,,,,,,,,,,,,,,,596.1192,596.9532,596.9532,597.9535,,,,,,0,0.5,,,,,,,,,,,,,,,,,,,,,,,,,,,,,,,,,,,,,,,,,,,,,,,,,,,,,0,24,24,54,1,,,,,,,,,,,,,,,,,,
,,,,,,,,glacier,2,Female,African American,,2024-12-11_12h26.02.509,dissOSARI,2023.2.3,Win32,60.60606061,,,,,,,,,,,,,,,,,,,,,,,,,,,,,,,,597.9542,598.7884,598.7884,599.7887,,,,,,0,0.5,,,,,,,,,,,,,,,,,,,,,,,,,,,,,,,,,,,,,,,,,,,,,,,,,,,,,0,25,25,8,1,,,,,,,,,,,,,,,,,,
,,,,,,,,glacier,2,Female,African American,,2024-12-11_12h26.02.509,dissOSARI,2023.2.3,Win32,60.60606061,,,,,,,,,,,,,,,,,,,,,,,,,,,,,,,,599.789,600.6064,600.6065,601.607,,,,,,0,0.5,,,,,,,,,,,,,,,,,,,,,,,,,,,,,,,,,,,,,,,,,,,,,,,,,,,,,0,26,26,45,1,,,,,,,,,,,,,,,,,,
,,,,,,,,glacier,2,Female,African American,,2024-12-11_12h26.02.509,dissOSARI,2023.2.3,Win32,60.60606061,,,,,,,,,,,,,,,,,,,,,,,,,,,,,,,,601.6077,602.3248,602.3248,603.3249,,,,,,1,0.5,,,,,,,,,,,,,,,,,,,,,,,,,,,,,,,,,,,,,,,,,,,,,,,,,,,,,0,27,27,72,1,,,,,,,,,,,,,,,,,,
,,,,,,,,glacier,2,Female,African American,,2024-12-11_12h26.02.509,dissOSARI,2023.2.3,Win32,60.60606061,,,,,,,,,,,,,,,,,,,,,,,,,,,,,,,,603.3254,604.1591,604.1591,605.1597,,,,,,0,0.5,,,,,,,,,,,,,,,,,,,,,,,,,,,,,,,,,,,,,,,,,,,,,,,,,,,,,0,28,28,10,1,,,,,,,,,,,,,,,,,,
,,,,,,,,glacier,2,Female,African American,,2024-12-11_12h26.02.509,dissOSARI,2023.2.3,Win32,60.60606061,,,,,,,,,,,,,,,,,,,,,,,,,,,,,,,,605.1604,605.9777,605.9777,606.9779,,,,,,0,0.5,,,,,,,,,,,,,,,,,,,,,,,,,,,,,,,,,,,,,,,,,,,,,,,,,,,,,0,29,29,46,1,,,,,,,,,,,,,,,,,,
,,,,,,,,glacier,2,Female,African American,,2024-12-11_12h26.02.509,dissOSARI,2023.2.3,Win32,60.60606061,,,,,,,,,,,,,,,,,,,,,,,,,,,,,,,,606.9782,607.8122,607.8122,608.8131,,,,,,0,0.5,,,,,,,,,,,,,,,,,,,,,,,,,,,,,,,,,,,,,,,,,,,,,,,,,,,,,0,30,30,29,1,,,,,,,,,,,,,,,,,,
,,,,,,,,glacier,2,Female,African American,,2024-12-11_12h26.02.509,dissOSARI,2023.2.3,Win32,60.60606061,,,,,,,,,,,,,,,,,,,,,,,,,,,,,,,,608.814,609.6642,609.6643,610.6647,,,,,,0,0.5,,,,,,,,,,,,,,,,,,,,,,,,,,,,,,,,,,,,,,,,,,,,,,,,,,,,,0,31,31,7,1,,,,,,,,,,,,,,,,,,
,,,,,,,,glacier,2,Female,African American,,2024-12-11_12h26.02.509,dissOSARI,2023.2.3,Win32,60.60606061,,,,,,,,,,,,,,,,,,,,,,,,,,,,,,,,610.6656,611.5156,611.5156,612.5157,,,,,,0,0.5,,,,,,,,,,,,,,,,,,,,,,,,,,,,,,,,,,,,,,,,,,,,,,,,,,,,,0,32,32,31,1,,,,,,,,,,,,,,,,,,
,,,,,,,,glacier,2,Female,African American,,2024-12-11_12h26.02.509,dissOSARI,2023.2.3,Win32,60.60606061,,,,,,,,,,,,,,,,,,,,,,,,,,,,,,,,612.5161,613.4173,613.4173,614.4175,,,,,,0,0.5,,,,,,,,,,,,,,,,,,,,,,,,,,,,,,,,,,,,,,,,,,,,,,,,,,,,,0,33,33,3,1,,,,,,,,,,,,,,,,,,
,,,,,,,,glacier,2,Female,African American,,2024-12-11_12h26.02.509,dissOSARI,2023.2.3,Win32,60.60606061,,,,,,,,,,,,,,,,,,,,,,,,,,,,,,,,614.4179,615.1854,615.1854,616.1856,,,,,,0,0.5,,,,,,,,,,,,,,,,,,,,,,,,,,,,,,,,,,,,,,,,,,,,,,,,,,,,,0,34,34,55,1,,,,,,,,,,,,,,,,,,
,,,,,,,,glacier,2,Female,African American,,2024-12-11_12h26.02.509,dissOSARI,2023.2.3,Win32,60.60606061,,,,,,,,,,,,,,,,,,,,,,,,,,,,,,,,616.186,617.02,617.0201,618.0202,,,,,,0,0.5,,,,,,,,,,,,,,,,,,,,,,,,,,,,,,,,,,,,,,,,,,,,,,,,,,,,,0,35,35,41,1,,,,,,,,,,,,,,,,,,
,,,,,,,,glacier,2,Female,African American,,2024-12-11_12h26.02.509,dissOSARI,2023.2.3,Win32,60.60606061,,,,,,,,,,,,,,,,,,,,,,,,,,,,,,,,618.0205,619.1881,619.1881,620.1886,,,,,,0,0.5,,,,,,,,,,,,,,,,,,,,,,,,,,,,,,,,,,,,,,,,,,,,,,,,,,,,,0,36,36,18,1,,,,,,,,,,,,,,,,,,
,,,,,,,,glacier,2,Female,African American,,2024-12-11_12h26.02.509,dissOSARI,2023.2.3,Win32,60.60606061,,,,,,,,,,,,,,,,,,,,,,,,,,,,,,,,620.1894,621.2232,621.2232,622.2238,,,,,,1,0.5,,,,,,,,,,,,,,,,,,,,,,,,,,,,,,,,,,,,,,,,,,,,,,,,,,,,,0,37,37,68,1,,,,,,,,,,,,,,,,,,
,,,,,,,,glacier,2,Female,African American,,2024-12-11_12h26.02.509,dissOSARI,2023.2.3,Win32,60.60606061,,,,,,,,,,,,,,,,,,,,,,,,,,,,,,,,622.2243,623.0418,623.0418,624.0419,,,,,,0,0.5,,,,,,,,,,,,,,,,,,,,,,,,,,,,,,,,,,,,,,,,,,,,,,,,,,,,,0,38,38,28,1,,,,,,,,,,,,,,,,,,
,,,,,,,,glacier,2,Female,African American,,2024-12-11_12h26.02.509,dissOSARI,2023.2.3,Win32,60.60606061,,,,,,,,,,,,,,,,,,,,,,,,,,,,,,,,624.0424,624.8438,624.8439,625.8435,,,,,,0,0.5,,,,,,,,,,,,,,,,,,,,,,,,,,,,,,,,,,,,,,,,,,,,,,,,,,,,,0,39,39,36,1,,,,,,,,,,,,,,,,,,
,,,,,,,,glacier,2,Female,African American,,2024-12-11_12h26.02.509,dissOSARI,2023.2.3,Win32,60.60606061,,,,,,,,,,,,,,,,,,,,,,,,,,,,,,,,625.8441,626.828,626.828,627.8284,,,,,,0,0.5,,,,,,,,,,,,,,,,,,,,,,,,,,,,,,,,,,,,,,,,,,,,,,,,,,,,,0,40,40,37,1,,,,,,,,,,,,,,,,,,
,,,,,,,,glacier,2,Female,African American,,2024-12-11_12h26.02.509,dissOSARI,2023.2.3,Win32,60.60606061,,,,,,,,,,,,,,,,,,,,,,,,,,,,,,,,627.8288,628.8468,628.8468,629.8468,,,,,,1,0.5,,,,,,,,,,,,,,,,,,,,,,,,,,,,,,,,,,,,,,,,,,,,,,,,,,,,,0,41,41,74,1,,,,,,,,,,,,,,,,,,
,,,,,,,,glacier,2,Female,African American,,2024-12-11_12h26.02.509,dissOSARI,2023.2.3,Win32,60.60606061,,,,,,,,,,,,,,,,,,,,,,,,,,,,,,,,629.8472,630.7147,630.7147,631.7151,,,,,,0,0.5,,,,,,,,,,,,,,,,,,,,,,,,,,,,,,,,,,,,,,,,,,,,,,,,,,,,,0,42,42,58,1,,,,,,,,,,,,,,,,,,
,,,,,,,,glacier,2,Female,African American,,2024-12-11_12h26.02.509,dissOSARI,2023.2.3,Win32,60.60606061,,,,,,,,,,,,,,,,,,,,,,,,,,,,,,,,631.7155,632.6164,632.6164,633.6166,,,,,,0,0.5,,,,,,,,,,,,,,,,,,,,,,,,,,,,,,,,,,,,,,,,,,,,,,,,,,,,,0,43,43,53,1,,,,,,,,,,,,,,,,,,
,,,,,,,,glacier,2,Female,African American,,2024-12-11_12h26.02.509,dissOSARI,2023.2.3,Win32,60.60606061,,,,,,,,,,,,,,,,,,,,,,,,,,,,,,,,633.617,634.6345,634.6345,635.6348,,,,,,1,0.5,,,,,,,,,,,,,,,,,,,,,,,,,,,,,,,,,,,,,,,,,,,,,,,,,,,,,0,44,44,71,1,,,,,,,,,,,,,,,,,,
,,,,,,,,glacier,2,Female,African American,,2024-12-11_12h26.02.509,dissOSARI,2023.2.3,Win32,60.60606061,,,,,,,,,,,,,,,,,,,,,,,,,,,,,,,,635.6352,636.4695,636.4695,637.4698,,,,,,0,0.5,,,,,,,,,,,,,,,,,,,,,,,,,,,,,,,,,,,,,,,,,,,,,,,,,,,,,0,45,45,50,1,,,,,,,,,,,,,,,,,,
,,,,,,,,glacier,2,Female,African American,,2024-12-11_12h26.02.509,dissOSARI,2023.2.3,Win32,60.60606061,,,,,,,,,,,,,,,,,,,,,,,,,,,,,,,,637.4703,638.571,638.571,639.5716,,,,,,0,0.5,,,,,,,,,,,,,,,,,,,,,,,,,,,,,,,,,,,,,,,,,,,,,,,,,,,,,0,46,46,17,1,,,,,,,,,,,,,,,,,,
,,,,,,,,glacier,2,Female,African American,,2024-12-11_12h26.02.509,dissOSARI,2023.2.3,Win32,60.60606061,,,,,,,,,,,,,,,,,,,,,,,,,,,,,,,,639.5718,640.5898,640.5898,641.5899,,,,,,1,0.5,,,,,,,,,,,,,,,,,,,,,,,,,,,,,,,,,,,,,,,,,,,,,,,,,,,,,0,47,47,69,1,,,,,,,,,,,,,,,,,,
,,,,,,,,glacier,2,Female,African American,,2024-12-11_12h26.02.509,dissOSARI,2023.2.3,Win32,60.60606061,,,,,,,,,,,,,,,,,,,,,,,,,,,,,,,,641.5903,642.3745,642.3745,643.3743,,,,,,0,0.5,,,,,,,,,,,,,,,,,,,,,,,,,,,,,,,,,,,,,,,,,,,,,,,,,,,,,0,48,48,0,1,,,,,,,,,,,,,,,,,,
,,,,,,,,glacier,2,Female,African American,,2024-12-11_12h26.02.509,dissOSARI,2023.2.3,Win32,60.60606061,,,,,,,,,,,,,,,,,,,,,,,,,,,,,,,,643.3746,644.1424,644.1425,645.1428,,,,,,0,0.5,,,,,,,,,,,,,,,,,,,,,,,,,,,,,,,,,,,,,,,,,,,,,,,,,,,,,0,49,49,16,1,,,,,,,,,,,,,,,,,,
,,,,,,,,glacier,2,Female,African American,,2024-12-11_12h26.02.509,dissOSARI,2023.2.3,Win32,60.60606061,,,,,,,,,,,,,,,,,,,,,,,,,,,,,,,,645.1433,646.0272,646.0273,647.0277,,,,,,0,0.5,,,,,,,,,,,,,,,,,,,,,,,,,,,,,,,,,,,,,,,,,,,,,,,,,,,,,0,50,50,21,1,,,,,,,,,,,,,,,,,,
,,,,,,,,glacier,2,Female,African American,,2024-12-11_12h26.02.509,dissOSARI,2023.2.3,Win32,60.60606061,,,,,,,,,,,,,,,,,,,,,,,,,,,,,,,,647.0281,647.8123,647.8124,648.8122,,,,,,0,0.5,,,,,,,,,,,,,,,,,,,,,,,,,,,,,,,,,,,,,,,,,,,,,,,,,,,,,0,51,51,13,1,,,,,,,,,,,,,,,,,,
,,,,,,,,glacier,2,Female,African American,,2024-12-11_12h26.02.509,dissOSARI,2023.2.3,Win32,60.60606061,,,,,,,,,,,,,,,,,,,,,,,,,,,,,,,,648.8126,649.6305,649.6305,650.6306,,,,,,0,0.5,,,,,,,,,,,,,,,,,,,,,,,,,,,,,,,,,,,,,,,,,,,,,,,,,,,,,0,52,52,38,1,,,,,,,,,,,,,,,,,,
,,,,,,,,glacier,2,Female,African American,,2024-12-11_12h26.02.509,dissOSARI,2023.2.3,Win32,60.60606061,,,,,,,,,,,,,,,,,,,,,,,,,,,,,,,,650.631,651.4987,651.4988,652.4989,,,,,,0,0.5,,,,,,,,,,,,,,,,,,,,,,,,,,,,,,,,,,,,,,,,,,,,,,,,,,,,,0,53,53,2,1,,,,,,,,,,,,,,,,,,
,,,,,,,,glacier,2,Female,African American,,2024-12-11_12h26.02.509,dissOSARI,2023.2.3,Win32,60.60606061,,,,,,,,,,,,,,,,,,,,,,,,,,,,,,,,652.4993,653.3998,653.3998,654.4004,,,,,,0,0.5,,,,,,,,,,,,,,,,,,,,,,,,,,,,,,,,,,,,,,,,,,,,,,,,,,,,,0,54,54,6,1,,,,,,,,,,,,,,,,,,
,,,,,,,,glacier,2,Female,African American,,2024-12-11_12h26.02.509,dissOSARI,2023.2.3,Win32,60.60606061,,,,,,,,,,,,,,,,,,,,,,,,,,,,,,,,654.4006,655.185,655.185,656.1853,,,,,,0,0.5,,,,,,,,,,,,,,,,,,,,,,,,,,,,,,,,,,,,,,,,,,,,,,,,,,,,,0,55,55,12,1,,,,,,,,,,,,,,,,,,
,,,,,,,,glacier,2,Female,African American,,2024-12-11_12h26.02.509,dissOSARI,2023.2.3,Win32,60.60606061,,,,,,,,,,,,,,,,,,,,,,,,,,,,,,,,656.1856,657.0532,657.0533,658.0532,,,,,,0,0.5,,,,,,,,,,,,,,,,,,,,,,,,,,,,,,,,,,,,,,,,,,,,,,,,,,,,,0,56,56,11,1,,,,,,,,,,,,,,,,,,
,,,,,,,,glacier,2,Female,African American,,2024-12-11_12h26.02.509,dissOSARI,2023.2.3,Win32,60.60606061,,,,,,,,,,,,,,,,,,,,,,,,,,,,,,,,658.0537,659.0714,659.0714,660.0717,,,,,,1,0.5,,,,,,,,,,,,,,,,,,,,,,,,,,,,,,,,,,,,,,,,,,,,,,,,,,,,,0,57,57,79,1,,,,,,,,,,,,,,,,,,
,,,,,,,,glacier,2,Female,African American,,2024-12-11_12h26.02.509,dissOSARI,2023.2.3,Win32,60.60606061,,,,,,,,,,,,,,,,,,,,,,,,,,,,,,,,660.0721,661.0894,661.0894,662.09,,,,,,1,0.5,,,,,,,,,,,,,,,,,,,,,,,,,,,,,,,,,,,,,,,,,,,,,,,,,,,,,0,58,58,61,1,,,,,,,,,,,,,,,,,,
,,,,,,,,glacier,2,Female,African American,,2024-12-11_12h26.02.509,dissOSARI,2023.2.3,Win32,60.60606061,,,,,,,,,,,,,,,,,,,,,,,,,,,,,,,,662.0903,662.8912,662.8913,663.8915,,,,,,0,0.5,,,,,,,,,,,,,,,,,,,,,,,,,,,,,,,,,,,,,,,,,,,,,,,,,,,,,0,59,59,32,1,,,,,,,,,,,,,,,,,,
,,,,,,,,glacier,2,Female,African American,,2024-12-11_12h26.02.509,dissOSARI,2023.2.3,Win32,60.60606061,,,,,,,,,,,,,,,,,,,,,,,,,,,,,,,,663.8922,664.7096,664.7096,665.7098,,,,,,0,0.5,,,,,,,,,,,,,,,,,,,,,,,,,,,,,,,,,,,,,,,,,,,,,,,,,,,,,0,60,60,42,1,,,,,,,,,,,,,,,,,,
,,,,,,,,glacier,2,Female,African American,,2024-12-11_12h26.02.509,dissOSARI,2023.2.3,Win32,60.60606061,,,,,,,,,,,,,,,,,,,,,,,,,,,,,,,,665.7103,666.5777,666.5778,667.5774,,,,,,0,0.5,,,,,,,,,,,,,,,,,,,,,,,,,,,,,,,,,,,,,,,,,,,,,,,,,,,,,0,61,61,20,1,,,,,,,,,,,,,,,,,,
,,,,,,,,glacier,2,Female,African American,,2024-12-11_12h26.02.509,dissOSARI,2023.2.3,Win32,60.60606061,,,,,,,,,,,,,,,,,,,,,,,,,,,,,,,,667.5776,668.596,668.596,669.5964,,,,,,1,0.5,,,,,,,,,,,,,,,,,,,,,,,,,,,,,,,,,,,,,,,,,,,,,,,,,,,,,0,62,62,67,1,,,,,,,,,,,,,,,,,,
,,,,,,,,glacier,2,Female,African American,,2024-12-11_12h26.02.509,dissOSARI,2023.2.3,Win32,60.60606061,,,,,,,,,,,,,,,,,,,,,,,,,,,,,,,,669.5968,670.3811,670.3811,671.381,,,,,,0,0.5,,,,,,,,,,,,,,,,,,,,,,,,,,,,,,,,,,,,,,,,,,,,,,,,,,,,,0,63,63,44,1,,,,,,,,,,,,,,,,,,
,,,,,,,,glacier,2,Female,African American,,2024-12-11_12h26.02.509,dissOSARI,2023.2.3,Win32,60.60606061,,,,,,,,,,,,,,,,,,,,,,,,,,,,,,,,671.3814,672.1991,672.1991,673.1994,,,,,,0,0.5,,,,,,,,,,,,,,,,,,,,,,,,,,,,,,,,,,,,,,,,,,,,,,,,,,,,,0,64,64,14,1,,,,,,,,,,,,,,,,,,
,,,,,,,,glacier,2,Female,African American,,2024-12-11_12h26.02.509,dissOSARI,2023.2.3,Win32,60.60606061,,,,,,,,,,,,,,,,,,,,,,,,,,,,,,,,673.1997,674.0507,674.0507,675.051,,,,,,0,0.5,,,,,,,,,,,,,,,,,,,,,,,,,,,,,,,,,,,,,,,,,,,,,,,,,,,,,0,65,65,22,1,,,,,,,,,,,,,,,,,,
,,,,,,,,glacier,2,Female,African American,,2024-12-11_12h26.02.509,dissOSARI,2023.2.3,Win32,60.60606061,,,,,,,,,,,,,,,,,,,,,,,,,,,,,,,,675.0515,675.9018,675.9019,676.9022,,,,,,0,0.5,,,,,,,,,,,,,,,,,,,,,,,,,,,,,,,,,,,,,,,,,,,,,,,,,,,,,0,66,66,51,1,,,,,,,,,,,,,,,,,,
,,,,,,,,glacier,2,Female,African American,,2024-12-11_12h26.02.509,dissOSARI,2023.2.3,Win32,60.60606061,,,,,,,,,,,,,,,,,,,,,,,,,,,,,,,,676.9025,677.7872,677.7872,678.7873,,,,,,0,0.5,,,,,,,,,,,,,,,,,,,,,,,,,,,,,,,,,,,,,,,,,,,,,,,,,,,,,0,67,67,48,1,,,,,,,,,,,,,,,,,,
,,,,,,,,glacier,2,Female,African American,,2024-12-11_12h26.02.509,dissOSARI,2023.2.3,Win32,60.60606061,,,,,,,,,,,,,,,,,,,,,,,,,,,,,,,,678.7877,679.5713,679.5713,680.5721,,,,,,0,0.5,,,,,,,,,,,,,,,,,,,,,,,,,,,,,,,,,,,,,,,,,,,,,,,,,,,,,0,68,68,5,1,,,,,,,,,,,,,,,,,,
,,,,,,,,glacier,2,Female,African American,,2024-12-11_12h26.02.509,dissOSARI,2023.2.3,Win32,60.60606061,,,,,,,,,,,,,,,,,,,,,,,,,,,,,,,,680.5726,681.4401,681.4401,682.4403,,,,,,0,0.5,,,,,,,,,,,,,,,,,,,,,,,,,,,,,,,,,,,,,,,,,,,,,,,,,,,,,0,69,69,24,1,,,,,,,,,,,,,,,,,,
,,,,,,,,glacier,2,Female,African American,,2024-12-11_12h26.02.509,dissOSARI,2023.2.3,Win32,60.60606061,,,,,,,,,,,,,,,,,,,,,,,,,,,,,,,,682.4406,683.4583,683.4583,684.4586,,,,,,1,0.5,,,,,,,,,,,,,,,,,,,,,,,,,,,,,,,,,,,,,,,,,,,,,,,,,,,,,0,70,70,76,1,,,,,,,,,,,,,,,,,,
,,,,,,,,glacier,2,Female,African American,,2024-12-11_12h26.02.509,dissOSARI,2023.2.3,Win32,60.60606061,,,,,,,,,,,,,,,,,,,,,,,,,,,,,,,,684.459,685.2266,685.2266,686.2269,,,,,,0,0.5,,,,,,,,,,,,,,,,,,,,,,,,,,,,,,,,,,,,,,,,,,,,,,,,,,,,,0,71,71,57,1,,,,,,,,,,,,,,,,,,
,,,,,,,,glacier,2,Female,African American,,2024-12-11_12h26.02.509,dissOSARI,2023.2.3,Win32,60.60606061,,,,,,,,,,,,,,,,,,,,,,,,,,,,,,,,686.2278,687.0779,687.0779,688.0783,,,,,,0,0.5,,,,,,,,,,,,,,,,,,,,,,,,,,,,,,,,,,,,,,,,,,,,,,,,,,,,,0,72,72,26,1,,,,,,,,,,,,,,,,,,
,,,,,,,,glacier,2,Female,African American,,2024-12-11_12h26.02.509,dissOSARI,2023.2.3,Win32,60.60606061,,,,,,,,,,,,,,,,,,,,,,,,,,,,,,,,688.0788,688.9628,688.9628,689.9633,,,,,,0,0.5,,,,,,,,,,,,,,,,,,,,,,,,,,,,,,,,,,,,,,,,,,,,,,,,,,,,,0,73,73,27,1,,,,,,,,,,,,,,,,,,
,,,,,,,,glacier,2,Female,African American,,2024-12-11_12h26.02.509,dissOSARI,2023.2.3,Win32,60.60606061,,,,,,,,,,,,,,,,,,,,,,,,,,,,,,,,689.9638,690.8147,690.8147,691.8147,,,,,,0,0.5,,,,,,,,,,,,,,,,,,,,,,,,,,,,,,,,,,,,,,,,,,,,,,,,,,,,,0,74,74,56,1,,,,,,,,,,,,,,,,,,
,,,,,,,,glacier,2,Female,African American,,2024-12-11_12h26.02.509,dissOSARI,2023.2.3,Win32,60.60606061,,,,,,,,,,,,,,,,,,,,,,,,,,,,,,,,691.8152,692.5995,692.5995,693.5997,,,,,,1,0.5,,,,,,,,,,,,,,,,,,,,,,,,,,,,,,,,,,,,,,,,,,,,,,,,,,,,,0,75,75,75,1,,,,,,,,,,,,,,,,,,
,,,,,,,,glacier,2,Female,African American,,2024-12-11_12h26.02.509,dissOSARI,2023.2.3,Win32,60.60606061,,,,,,,,,,,,,,,,,,,,,,,,,,,,,,,,693.6004,694.4841,694.4841,695.4839,,,,,,0,0.5,,,,,,,,,,,,,,,,,,,,,,,,,,,,,,,,,,,,,,,,,,,,,,,,,,,,,0,76,76,43,1,,,,,,,,,,,,,,,,,,
,,,,,,,,glacier,2,Female,African American,,2024-12-11_12h26.02.509,dissOSARI,2023.2.3,Win32,60.60606061,,,,,,,,,,,,,,,,,,,,,,,,,,,,,,,,695.4841,696.7535,696.7535,697.7527,,,,,,1,0.5,,,,,,,,,,,,,,,,,,,,,,,,,,,,,,,,,,,,,,,,,,,,,,,,,,,,,0,77,77,65,1,,,,,,,,,,,,,,,,,,
,,,,,,,,glacier,2,Female,African American,,2024-12-11_12h26.02.509,dissOSARI,2023.2.3,Win32,60.60606061,,,,,,,,,,,,,,,,,,,,,,,,,,,,,,,,697.7531,698.6043,698.6043,699.6045,,,,,,0,0.5,,,,,,,,,,,,,,,,,,,,,,,,,,,,,,,,,,,,,,,,,,,,,,,,,,,,,0,78,78,34,1,,,,,,,,,,,,,,,,,,
,,,,,,,,glacier,2,Female,African American,,2024-12-11_12h26.02.509,dissOSARI,2023.2.3,Win32,60.60606061,,,,,,,,,,,,,,,,,,,,,,,,,,,,,,,,699.605,700.5053,700.5054,701.5062,,,,,,0,0.5,,,,,,,,,,,,,,,,,,,,,,,,,,,,,,,,,,,,,,,,,,,,,,,,,,,,,0,79,79,33,1,,,,,,,,,,,,,,,,,,
,,,,,,,,glacier,2,Female,African American,,2024-12-11_12h26.02.509,dissOSARI,2023.2.3,Win32,60.60606061,,,,,,,,,,,,,,,,,,,,,,,,,,,,,,,,,,,,,,,,,,,,,,,,,,,,,,,,,,,,,,,,,,,,,,,,,,,,,,,,,,,,,,,,,,,,,,,,,,,,701.5067,708.914,6,0.128712871,-0.017897944,1,0,0,5.9045,EndFatigue,,,,,,,,
,,,,,,,,glacier,2,Female,African American,,2024-12-11_12h26.02.509,dissOSARI,2023.2.3,Win32,60.60606061,,,,,,,,,,,,,,,,,,,,,,,,,,,,,,,,,,,,,,,,,,,,,,,,,,,,,,,,,,,,,,,,,,,,,,,,,,,,,,,,,,,,,,,,,,,,,,,,,,,,,,,,,,,,,,708.9144,1256.9985,0.117288652,-0.225057121,1,0,0,548.0831