welcome.started,welcome.stopped,WelcomeClick.x,WelcomeClick.y,WelcomeClick.leftButton,WelcomeClick.midButton,WelcomeClick.rightButton,WelcomeClick.time,participant,week,gender,race/ ethnicity,cognitive health history,date,expName,psychopyVersion,OS,frameRate,intro.started,intro.stopped,readyClick.x,readyClick.y,readyClick.leftButton,readyClick.midButton,readyClick.rightButton,practGoInst.started,practGoInst.stopped,PractGoClick.x,PractGoClick.y,PractGoClick.leftButton,PractGoClick.midButton,PractGoClick.rightButton,PractGoClick.time,practGoInst2.started,practGoInst2.stopped,PractGo2Click.x,PractGo2Click.y,PractGo2Click.leftButton,PractGo2Click.midButton,PractGo2Click.rightButton,PractGo2Click.time,practGoInst3.started,practGoInst3.stopped,PractGo3Click.x,PractGo3Click.y,PractGo3Click.leftButton,PractGo3Click.midButton,PractGo3Click.rightButton,PractGo3Click.time,trial.started,trial.stopped,feedback.started,feedback.stopped,practGo.thisRepN,practGo.thisTrialN,practGo.thisN,practGo.thisIndex,practGo.ran,Signal,fixedStopTime,testGoInst.started,testGoInst.stopped,GoTestClick.x,GoTestClick.y,GoTestClick.leftButton,GoTestClick.midButton,GoTestClick.rightButton,GoTestClick.time,TestGo.thisRepN,TestGo.thisTrialN,TestGo.thisN,TestGo.thisIndex,TestGo.ran,mixPractIntro.started,mixPractIntro.stopped,MixIntroClick.x,MixIntroClick.y,MixIntroClick.leftButton,MixIntroClick.midButton,MixIntroClick.rightButton,MixIntroClick.time,mixPractInst.started,mixPractInst.stopped,StopInstClick.x,StopInstClick.y,StopInstClick.leftButton,StopInstClick.midButton,StopInstClick.rightButton,StopInstClick.time,mixPractInst2.started,mixPractInst2.stopped,PractStop2Click.x,PractStop2Click.y,PractStop2Click.leftButton,PractStop2Click.midButton,PractStop2Click.rightButton,PractStop2Click.time,mixPractInst3.started,mixPractInst3.stopped,PractStop3Click.x,PractStop3Click.y,PractStop3Click.leftButton,PractStop3Click.midButton,PractStop3Click.rightButton,PractStop3Click.time,mixPract.thisRepN,mixPract.thisTrialN,mixPract.thisN,mixPract.thisIndex,mixPract.ran,breakResetTrial.started,breakResetTrial.stopped,trials.thisRepN,trials.thisTrialN,trials.thisN,trials.thisIndex,trials.ran,MentalFatigue.started,MentalFatigue.stopped,textbox.text,EndClick.x,EndClick.y,EndClick.leftButton,EndClick.midButton,EndClick.rightButton,EndClick.time,EndClick.clicked_name,end.started,end.stopped,mouse_2.x,mouse_2.y,mouse_2.leftButton,mouse_2.midButton,mouse_2.rightButton,mouse_2.time
0.0002,993.2598,-0.155432197,-0.034496431,1,0,0,993.0051,Harbor,2,Female,Hispanic/Latino,n/a,2024-12-13_14h34.24.288,dissOSARI,2023.2.3,Win32,60.24096386,,,,,,,,,,,,,,,,,,,,,,,,,,,,,,,,,,,,,,,,,,,,,,,,,,,,,,,,,,,,,,,,,,,,,,,,,,,,,,,,,,,,,,,,,,,,,,,,,,,,,,,,,,,,,,,,,,,,,
,,,,,,,,Harbor,2,Female,Hispanic/Latino,n/a,2024-12-13_14h34.24.288,dissOSARI,2023.2.3,Win32,60.24096386,993.26,994.4645,-0.298969072,-0.300951626,1,0,0,,,,,,,,,,,,,,,,,,,,,,,,,,,,,,,,,,,,,,,,,,,,,,,,,,,,,,,,,,,,,,,,,,,,,,,,,,,,,,,,,,,,,,,,,,,,,,,,,,,,,,,,,,,,,,
,,,,,,,,Harbor,2,Female,Hispanic/Latino,n/a,2024-12-13_14h34.24.288,dissOSARI,2023.2.3,Win32,60.24096386,,,,,,,,994.4646,995.6332,-0.024583664,-0.228786677,1,0,0,0.9181,,,,,,,,,,,,,,,,,,,,,,,,,,,,,,,,,,,,,,,,,,,,,,,,,,,,,,,,,,,,,,,,,,,,,,,,,,,,,,,,,,,,,,,,,,,,,,,,,,,,,,
,,,,,,,,Harbor,2,Female,Hispanic/Latino,n/a,2024-12-13_14h34.24.288,dissOSARI,2023.2.3,Win32,60.24096386,,,,,,,,,,,,,,,,995.6333,995.9993,-0.020618557,-0.228786677,1,0,0,0.1038,,,,,,,,,,,,,,,,,,,,,,,,,,,,,,,,,,,,,,,,,,,,,,,,,,,,,,,,,,,,,,,,,,,,,,,,,,,,,,,,,,,,,,,,,,,,,,
,,,,,,,,Harbor,2,Female,Hispanic/Latino,n/a,2024-12-13_14h34.24.288,dissOSARI,2023.2.3,Win32,60.24096386,,,,,,,,,,,,,,,,,,,,,,,,995.9993,996.7297,-0.022997621,-0.228786677,1,0,0,0.4637,,,,,,,,,,,,,,,,,,,,,,,,,,,,,,,,,,,,,,,,,,,,,,,,,,,,,,,,,,,,,,,,,,,,,,,,,,,,,,,,,,,,,,
,,,,,,,,Harbor,2,Female,Hispanic/Latino,n/a,2024-12-13_14h34.24.288,dissOSARI,2023.2.3,Win32,60.24096386,,,,,,,,,,,,,,,,,,,,,,,,,,,,,,,,996.7328,998.8022,998.8023,999.8026,0,0,0,2,1,0,0.5,,,,,,,,,,,,,,,,,,,,,,,,,,,,,,,,,,,,,,,,,,,,,,,,,,,,,,,,,,,,,,,,,,,,,,,,,,,
,,,,,,,,Harbor,2,Female,Hispanic/Latino,n/a,2024-12-13_14h34.24.288,dissOSARI,2023.2.3,Win32,60.24096386,,,,,,,,,,,,,,,,,,,,,,,,,,,,,,,,999.803,1000.8872,1000.8872,1001.887,0,1,1,4,1,0,0.5,,,,,,,,,,,,,,,,,,,,,,,,,,,,,,,,,,,,,,,,,,,,,,,,,,,,,,,,,,,,,,,,,,,,,,,,,,,
,,,,,,,,Harbor,2,Female,Hispanic/Latino,n/a,2024-12-13_14h34.24.288,dissOSARI,2023.2.3,Win32,60.24096386,,,,,,,,,,,,,,,,,,,,,,,,,,,,,,,,1001.8873,1003.9893,1003.9893,1004.9901,0,2,2,0,1,0,0.5,,,,,,,,,,,,,,,,,,,,,,,,,,,,,,,,,,,,,,,,,,,,,,,,,,,,,,,,,,,,,,,,,,,,,,,,,,,
,,,,,,,,Harbor,2,Female,Hispanic/Latino,n/a,2024-12-13_14h34.24.288,dissOSARI,2023.2.3,Win32,60.24096386,,,,,,,,,,,,,,,,,,,,,,,,,,,,,,,,1004.9904,1006.0249,1006.0249,1007.0253,0,3,3,1,1,0,0.5,,,,,,,,,,,,,,,,,,,,,,,,,,,,,,,,,,,,,,,,,,,,,,,,,,,,,,,,,,,,,,,,,,,,,,,,,,,
,,,,,,,,Harbor,2,Female,Hispanic/Latino,n/a,2024-12-13_14h34.24.288,dissOSARI,2023.2.3,Win32,60.24096386,,,,,,,,,,,,,,,,,,,,,,,,,,,,,,,,1007.0256,1008.1431,1008.1431,1009.1436,0,4,4,3,1,0,0.5,,,,,,,,,,,,,,,,,,,,,,,,,,,,,,,,,,,,,,,,,,,,,,,,,,,,,,,,,,,,,,,,,,,,,,,,,,,
,,,,,,,,Harbor,2,Female,Hispanic/Latino,n/a,2024-12-13_14h34.24.288,dissOSARI,2023.2.3,Win32,60.24096386,,,,,,,,,,,,,,,,,,,,,,,,,,,,,,,,,,,,,,,,,,,1009.1439,1044.9233,-0.008723236,-0.197065821,1,0,0,35.0137,,,,,,,,,,,,,,,,,,,,,,,,,,,,,,,,,,,,,,,,,,,,,,,,,,,,,,,,,,,,,,,,,,,
,,,,,,,,Harbor,2,Female,Hispanic/Latino,n/a,2024-12-13_14h34.24.288,dissOSARI,2023.2.3,Win32,60.24096386,,,,,,,,,,,,,,,,,,,,,,,,,,,,,,,,1044.9246,1047.2586,1047.2586,1048.2554,,,,,,0,0.5,,,,,,,,,0,0,0,4,1,,,,,,,,,,,,,,,,,,,,,,,,,,,,,,,,,,,,,,,,,,,,,,,,,,,,,,,,,,,,,,
,,,,,,,,Harbor,2,Female,Hispanic/Latino,n/a,2024-12-13_14h34.24.288,dissOSARI,2023.2.3,Win32,60.24096386,,,,,,,,,,,,,,,,,,,,,,,,,,,,,,,,1048.2558,1052.2796,1052.2797,1053.2801,,,,,,0,0.5,,,,,,,,,0,1,1,15,1,,,,,,,,,,,,,,,,,,,,,,,,,,,,,,,,,,,,,,,,,,,,,,,,,,,,,,,,,,,,,,
,,,,,,,,Harbor,2,Female,Hispanic/Latino,n/a,2024-12-13_14h34.24.288,dissOSARI,2023.2.3,Win32,60.24096386,,,,,,,,,,,,,,,,,,,,,,,,,,,,,,,,1053.2803,1054.7157,1054.7157,1055.7152,,,,,,0,0.5,,,,,,,,,0,2,2,11,1,,,,,,,,,,,,,,,,,,,,,,,,,,,,,,,,,,,,,,,,,,,,,,,,,,,,,,,,,,,,,,
,,,,,,,,Harbor,2,Female,Hispanic/Latino,n/a,2024-12-13_14h34.24.288,dissOSARI,2023.2.3,Win32,60.24096386,,,,,,,,,,,,,,,,,,,,,,,,,,,,,,,,1055.7155,1057.1165,1057.1165,1058.1172,,,,,,0,0.5,,,,,,,,,0,3,3,31,1,,,,,,,,,,,,,,,,,,,,,,,,,,,,,,,,,,,,,,,,,,,,,,,,,,,,,,,,,,,,,,
,,,,,,,,Harbor,2,Female,Hispanic/Latino,n/a,2024-12-13_14h34.24.288,dissOSARI,2023.2.3,Win32,60.24096386,,,,,,,,,,,,,,,,,,,,,,,,,,,,,,,,1058.1174,1059.4701,1059.4701,1060.4657,,,,,,0,0.5,,,,,,,,,0,4,4,43,1,,,,,,,,,,,,,,,,,,,,,,,,,,,,,,,,,,,,,,,,,,,,,,,,,,,,,,,,,,,,,,
,,,,,,,,Harbor,2,Female,Hispanic/Latino,n/a,2024-12-13_14h34.24.288,dissOSARI,2023.2.3,Win32,60.24096386,,,,,,,,,,,,,,,,,,,,,,,,,,,,,,,,1060.4661,1061.5877,1061.5877,1062.5878,,,,,,0,0.5,,,,,,,,,0,5,5,39,1,,,,,,,,,,,,,,,,,,,,,,,,,,,,,,,,,,,,,,,,,,,,,,,,,,,,,,,,,,,,,,
,,,,,,,,Harbor,2,Female,Hispanic/Latino,n/a,2024-12-13_14h34.24.288,dissOSARI,2023.2.3,Win32,60.24096386,,,,,,,,,,,,,,,,,,,,,,,,,,,,,,,,1062.588,1063.6222,1063.6222,1064.623,,,,,,0,0.5,,,,,,,,,0,6,6,30,1,,,,,,,,,,,,,,,,,,,,,,,,,,,,,,,,,,,,,,,,,,,,,,,,,,,,,,,,,,,,,,
,,,,,,,,Harbor,2,Female,Hispanic/Latino,n/a,2024-12-13_14h34.24.288,dissOSARI,2023.2.3,Win32,60.24096386,,,,,,,,,,,,,,,,,,,,,,,,,,,,,,,,1064.6232,1065.6579,1065.658,1066.6573,,,,,,0,0.5,,,,,,,,,0,7,7,36,1,,,,,,,,,,,,,,,,,,,,,,,,,,,,,,,,,,,,,,,,,,,,,,,,,,,,,,,,,,,,,,
,,,,,,,,Harbor,2,Female,Hispanic/Latino,n/a,2024-12-13_14h34.24.288,dissOSARI,2023.2.3,Win32,60.24096386,,,,,,,,,,,,,,,,,,,,,,,,,,,,,,,,1066.6575,1067.76,1067.7601,1068.7596,,,,,,0,0.5,,,,,,,,,0,8,8,14,1,,,,,,,,,,,,,,,,,,,,,,,,,,,,,,,,,,,,,,,,,,,,,,,,,,,,,,,,,,,,,,
,,,,,,,,Harbor,2,Female,Hispanic/Latino,n/a,2024-12-13_14h34.24.288,dissOSARI,2023.2.3,Win32,60.24096386,,,,,,,,,,,,,,,,,,,,,,,,,,,,,,,,1068.7599,1070.6953,1070.6953,1071.6917,,,,,,0,0.5,,,,,,,,,0,9,9,28,1,,,,,,,,,,,,,,,,,,,,,,,,,,,,,,,,,,,,,,,,,,,,,,,,,,,,,,,,,,,,,,
,,,,,,,,Harbor,2,Female,Hispanic/Latino,n/a,2024-12-13_14h34.24.288,dissOSARI,2023.2.3,Win32,60.24096386,,,,,,,,,,,,,,,,,,,,,,,,,,,,,,,,1071.6921,1072.9297,1072.9297,1073.9299,,,,,,0,0.5,,,,,,,,,0,10,10,48,1,,,,,,,,,,,,,,,,,,,,,,,,,,,,,,,,,,,,,,,,,,,,,,,,,,,,,,,,,,,,,,
,,,,,,,,Harbor,2,Female,Hispanic/Latino,n/a,2024-12-13_14h34.24.288,dissOSARI,2023.2.3,Win32,60.24096386,,,,,,,,,,,,,,,,,,,,,,,,,,,,,,,,1073.9302,1075.0819,1075.0819,1076.0782,,,,,,0,0.5,,,,,,,,,0,11,11,21,1,,,,,,,,,,,,,,,,,,,,,,,,,,,,,,,,,,,,,,,,,,,,,,,,,,,,,,,,,,,,,,
,,,,,,,,Harbor,2,Female,Hispanic/Latino,n/a,2024-12-13_14h34.24.288,dissOSARI,2023.2.3,Win32,60.24096386,,,,,,,,,,,,,,,,,,,,,,,,,,,,,,,,1076.0784,1077.233,1077.233,1078.2336,,,,,,0,0.5,,,,,,,,,0,12,12,7,1,,,,,,,,,,,,,,,,,,,,,,,,,,,,,,,,,,,,,,,,,,,,,,,,,,,,,,,,,,,,,,
,,,,,,,,Harbor,2,Female,Hispanic/Latino,n/a,2024-12-13_14h34.24.288,dissOSARI,2023.2.3,Win32,60.24096386,,,,,,,,,,,,,,,,,,,,,,,,,,,,,,,,1078.2338,1079.4361,1079.4361,1080.4358,,,,,,0,0.5,,,,,,,,,0,13,13,29,1,,,,,,,,,,,,,,,,,,,,,,,,,,,,,,,,,,,,,,,,,,,,,,,,,,,,,,,,,,,,,,
,,,,,,,,Harbor,2,Female,Hispanic/Latino,n/a,2024-12-13_14h34.24.288,dissOSARI,2023.2.3,Win32,60.24096386,,,,,,,,,,,,,,,,,,,,,,,,,,,,,,,,1080.4361,1081.5042,1081.5043,1082.5038,,,,,,0,0.5,,,,,,,,,0,14,14,6,1,,,,,,,,,,,,,,,,,,,,,,,,,,,,,,,,,,,,,,,,,,,,,,,,,,,,,,,,,,,,,,
,,,,,,,,Harbor,2,Female,Hispanic/Latino,n/a,2024-12-13_14h34.24.288,dissOSARI,2023.2.3,Win32,60.24096386,,,,,,,,,,,,,,,,,,,,,,,,,,,,,,,,1082.504,1083.6398,1083.6398,1084.6389,,,,,,0,0.5,,,,,,,,,0,15,15,18,1,,,,,,,,,,,,,,,,,,,,,,,,,,,,,,,,,,,,,,,,,,,,,,,,,,,,,,,,,,,,,,
,,,,,,,,Harbor,2,Female,Hispanic/Latino,n/a,2024-12-13_14h34.24.288,dissOSARI,2023.2.3,Win32,60.24096386,,,,,,,,,,,,,,,,,,,,,,,,,,,,,,,,1084.639,1085.7902,1085.7902,1086.7913,,,,,,0,0.5,,,,,,,,,0,16,16,16,1,,,,,,,,,,,,,,,,,,,,,,,,,,,,,,,,,,,,,,,,,,,,,,,,,,,,,,,,,,,,,,
,,,,,,,,Harbor,2,Female,Hispanic/Latino,n/a,2024-12-13_14h34.24.288,dissOSARI,2023.2.3,Win32,60.24096386,,,,,,,,,,,,,,,,,,,,,,,,,,,,,,,,1086.7915,1087.9254,1087.9254,1088.9231,,,,,,0,0.5,,,,,,,,,0,17,17,1,1,,,,,,,,,,,,,,,,,,,,,,,,,,,,,,,,,,,,,,,,,,,,,,,,,,,,,,,,,,,,,,
,,,,,,,,Harbor,2,Female,Hispanic/Latino,n/a,2024-12-13_14h34.24.288,dissOSARI,2023.2.3,Win32,60.24096386,,,,,,,,,,,,,,,,,,,,,,,,,,,,,,,,1088.9237,1090.0282,1090.0282,1091.0245,,,,,,0,0.5,,,,,,,,,0,18,18,17,1,,,,,,,,,,,,,,,,,,,,,,,,,,,,,,,,,,,,,,,,,,,,,,,,,,,,,,,,,,,,,,
,,,,,,,,Harbor,2,Female,Hispanic/Latino,n/a,2024-12-13_14h34.24.288,dissOSARI,2023.2.3,Win32,60.24096386,,,,,,,,,,,,,,,,,,,,,,,,,,,,,,,,1091.0247,1092.0963,1092.0963,1093.0929,,,,,,0,0.5,,,,,,,,,0,19,19,33,1,,,,,,,,,,,,,,,,,,,,,,,,,,,,,,,,,,,,,,,,,,,,,,,,,,,,,,,,,,,,,,
,,,,,,,,Harbor,2,Female,Hispanic/Latino,n/a,2024-12-13_14h34.24.288,dissOSARI,2023.2.3,Win32,60.24096386,,,,,,,,,,,,,,,,,,,,,,,,,,,,,,,,1093.0934,1094.2308,1094.2308,1095.2276,,,,,,0,0.5,,,,,,,,,0,20,20,45,1,,,,,,,,,,,,,,,,,,,,,,,,,,,,,,,,,,,,,,,,,,,,,,,,,,,,,,,,,,,,,,
,,,,,,,,Harbor,2,Female,Hispanic/Latino,n/a,2024-12-13_14h34.24.288,dissOSARI,2023.2.3,Win32,60.24096386,,,,,,,,,,,,,,,,,,,,,,,,,,,,,,,,1095.2278,1096.4326,1096.4326,1097.4323,,,,,,0,0.5,,,,,,,,,0,21,21,13,1,,,,,,,,,,,,,,,,,,,,,,,,,,,,,,,,,,,,,,,,,,,,,,,,,,,,,,,,,,,,,,
,,,,,,,,Harbor,2,Female,Hispanic/Latino,n/a,2024-12-13_14h34.24.288,dissOSARI,2023.2.3,Win32,60.24096386,,,,,,,,,,,,,,,,,,,,,,,,,,,,,,,,1097.4326,1098.501,1098.501,1099.5016,,,,,,0,0.5,,,,,,,,,0,22,22,9,1,,,,,,,,,,,,,,,,,,,,,,,,,,,,,,,,,,,,,,,,,,,,,,,,,,,,,,,,,,,,,,
,,,,,,,,Harbor,2,Female,Hispanic/Latino,n/a,2024-12-13_14h34.24.288,dissOSARI,2023.2.3,Win32,60.24096386,,,,,,,,,,,,,,,,,,,,,,,,,,,,,,,,1099.5019,1100.6529,1100.6529,1101.6532,,,,,,0,0.5,,,,,,,,,0,23,23,3,1,,,,,,,,,,,,,,,,,,,,,,,,,,,,,,,,,,,,,,,,,,,,,,,,,,,,,,,,,,,,,,
,,,,,,,,Harbor,2,Female,Hispanic/Latino,n/a,2024-12-13_14h34.24.288,dissOSARI,2023.2.3,Win32,60.24096386,,,,,,,,,,,,,,,,,,,,,,,,,,,,,,,,1101.6535,1102.9225,1102.9226,1103.9181,,,,,,0,0.5,,,,,,,,,0,24,24,0,1,,,,,,,,,,,,,,,,,,,,,,,,,,,,,,,,,,,,,,,,,,,,,,,,,,,,,,,,,,,,,,
,,,,,,,,Harbor,2,Female,Hispanic/Latino,n/a,2024-12-13_14h34.24.288,dissOSARI,2023.2.3,Win32,60.24096386,,,,,,,,,,,,,,,,,,,,,,,,,,,,,,,,1103.9182,1104.9564,1104.9564,1105.9571,,,,,,0,0.5,,,,,,,,,0,25,25,46,1,,,,,,,,,,,,,,,,,,,,,,,,,,,,,,,,,,,,,,,,,,,,,,,,,,,,,,,,,,,,,,
,,,,,,,,Harbor,2,Female,Hispanic/Latino,n/a,2024-12-13_14h34.24.288,dissOSARI,2023.2.3,Win32,60.24096386,,,,,,,,,,,,,,,,,,,,,,,,,,,,,,,,1105.9574,1107.0587,1107.0588,1108.0549,,,,,,0,0.5,,,,,,,,,0,26,26,22,1,,,,,,,,,,,,,,,,,,,,,,,,,,,,,,,,,,,,,,,,,,,,,,,,,,,,,,,,,,,,,,
,,,,,,,,Harbor,2,Female,Hispanic/Latino,n/a,2024-12-13_14h34.24.288,dissOSARI,2023.2.3,Win32,60.24096386,,,,,,,,,,,,,,,,,,,,,,,,,,,,,,,,1108.0552,1109.0929,1109.093,1110.0904,,,,,,0,0.5,,,,,,,,,0,27,27,47,1,,,,,,,,,,,,,,,,,,,,,,,,,,,,,,,,,,,,,,,,,,,,,,,,,,,,,,,,,,,,,,
,,,,,,,,Harbor,2,Female,Hispanic/Latino,n/a,2024-12-13_14h34.24.288,dissOSARI,2023.2.3,Win32,60.24096386,,,,,,,,,,,,,,,,,,,,,,,,,,,,,,,,1110.0907,1111.1615,1111.1615,1112.1622,,,,,,0,0.5,,,,,,,,,0,28,28,35,1,,,,,,,,,,,,,,,,,,,,,,,,,,,,,,,,,,,,,,,,,,,,,,,,,,,,,,,,,,,,,,
,,,,,,,,Harbor,2,Female,Hispanic/Latino,n/a,2024-12-13_14h34.24.288,dissOSARI,2023.2.3,Win32,60.24096386,,,,,,,,,,,,,,,,,,,,,,,,,,,,,,,,1112.1624,1113.3464,1113.3464,1114.347,,,,,,0,0.5,,,,,,,,,0,29,29,5,1,,,,,,,,,,,,,,,,,,,,,,,,,,,,,,,,,,,,,,,,,,,,,,,,,,,,,,,,,,,,,,
,,,,,,,,Harbor,2,Female,Hispanic/Latino,n/a,2024-12-13_14h34.24.288,dissOSARI,2023.2.3,Win32,60.24096386,,,,,,,,,,,,,,,,,,,,,,,,,,,,,,,,1114.3471,1115.4815,1115.4815,1116.4789,,,,,,0,0.5,,,,,,,,,0,30,30,19,1,,,,,,,,,,,,,,,,,,,,,,,,,,,,,,,,,,,,,,,,,,,,,,,,,,,,,,,,,,,,,,
,,,,,,,,Harbor,2,Female,Hispanic/Latino,n/a,2024-12-13_14h34.24.288,dissOSARI,2023.2.3,Win32,60.24096386,,,,,,,,,,,,,,,,,,,,,,,,,,,,,,,,1116.4792,1117.8351,1117.8351,1118.8309,,,,,,0,0.5,,,,,,,,,0,31,31,49,1,,,,,,,,,,,,,,,,,,,,,,,,,,,,,,,,,,,,,,,,,,,,,,,,,,,,,,,,,,,,,,
,,,,,,,,Harbor,2,Female,Hispanic/Latino,n/a,2024-12-13_14h34.24.288,dissOSARI,2023.2.3,Win32,60.24096386,,,,,,,,,,,,,,,,,,,,,,,,,,,,,,,,1118.8313,1119.919,1119.919,1120.9158,,,,,,0,0.5,,,,,,,,,0,32,32,38,1,,,,,,,,,,,,,,,,,,,,,,,,,,,,,,,,,,,,,,,,,,,,,,,,,,,,,,,,,,,,,,
,,,,,,,,Harbor,2,Female,Hispanic/Latino,n/a,2024-12-13_14h34.24.288,dissOSARI,2023.2.3,Win32,60.24096386,,,,,,,,,,,,,,,,,,,,,,,,,,,,,,,,1120.9161,1122.0539,1122.0539,1123.0509,,,,,,0,0.5,,,,,,,,,0,33,33,23,1,,,,,,,,,,,,,,,,,,,,,,,,,,,,,,,,,,,,,,,,,,,,,,,,,,,,,,,,,,,,,,
,,,,,,,,Harbor,2,Female,Hispanic/Latino,n/a,2024-12-13_14h34.24.288,dissOSARI,2023.2.3,Win32,60.24096386,,,,,,,,,,,,,,,,,,,,,,,,,,,,,,,,1123.0513,1124.1555,1124.1555,1125.1565,,,,,,0,0.5,,,,,,,,,0,34,34,34,1,,,,,,,,,,,,,,,,,,,,,,,,,,,,,,,,,,,,,,,,,,,,,,,,,,,,,,,,,,,,,,
,,,,,,,,Harbor,2,Female,Hispanic/Latino,n/a,2024-12-13_14h34.24.288,dissOSARI,2023.2.3,Win32,60.24096386,,,,,,,,,,,,,,,,,,,,,,,,,,,,,,,,1125.1566,1126.2417,1126.2417,1127.2408,,,,,,0,0.5,,,,,,,,,0,35,35,26,1,,,,,,,,,,,,,,,,,,,,,,,,,,,,,,,,,,,,,,,,,,,,,,,,,,,,,,,,,,,,,,
,,,,,,,,Harbor,2,Female,Hispanic/Latino,n/a,2024-12-13_14h34.24.288,dissOSARI,2023.2.3,Win32,60.24096386,,,,,,,,,,,,,,,,,,,,,,,,,,,,,,,,1127.241,1128.3092,1128.3092,1129.3064,,,,,,0,0.5,,,,,,,,,0,36,36,20,1,,,,,,,,,,,,,,,,,,,,,,,,,,,,,,,,,,,,,,,,,,,,,,,,,,,,,,,,,,,,,,
,,,,,,,,Harbor,2,Female,Hispanic/Latino,n/a,2024-12-13_14h34.24.288,dissOSARI,2023.2.3,Win32,60.24096386,,,,,,,,,,,,,,,,,,,,,,,,,,,,,,,,1129.3069,1130.5789,1130.5789,1131.5783,,,,,,0,0.5,,,,,,,,,0,37,37,37,1,,,,,,,,,,,,,,,,,,,,,,,,,,,,,,,,,,,,,,,,,,,,,,,,,,,,,,,,,,,,,,
,,,,,,,,Harbor,2,Female,Hispanic/Latino,n/a,2024-12-13_14h34.24.288,dissOSARI,2023.2.3,Win32,60.24096386,,,,,,,,,,,,,,,,,,,,,,,,,,,,,,,,1131.5785,1132.4292,1132.4293,1133.4262,,,,,,0,0.5,,,,,,,,,0,38,38,32,1,,,,,,,,,,,,,,,,,,,,,,,,,,,,,,,,,,,,,,,,,,,,,,,,,,,,,,,,,,,,,,
,,,,,,,,Harbor,2,Female,Hispanic/Latino,n/a,2024-12-13_14h34.24.288,dissOSARI,2023.2.3,Win32,60.24096386,,,,,,,,,,,,,,,,,,,,,,,,,,,,,,,,1133.4266,1134.5976,1134.5976,1135.5951,,,,,,0,0.5,,,,,,,,,0,39,39,2,1,,,,,,,,,,,,,,,,,,,,,,,,,,,,,,,,,,,,,,,,,,,,,,,,,,,,,,,,,,,,,,
,,,,,,,,Harbor,2,Female,Hispanic/Latino,n/a,2024-12-13_14h34.24.288,dissOSARI,2023.2.3,Win32,60.24096386,,,,,,,,,,,,,,,,,,,,,,,,,,,,,,,,1135.5957,1136.8495,1136.8496,1137.8461,,,,,,0,0.5,,,,,,,,,0,40,40,41,1,,,,,,,,,,,,,,,,,,,,,,,,,,,,,,,,,,,,,,,,,,,,,,,,,,,,,,,,,,,,,,
,,,,,,,,Harbor,2,Female,Hispanic/Latino,n/a,2024-12-13_14h34.24.288,dissOSARI,2023.2.3,Win32,60.24096386,,,,,,,,,,,,,,,,,,,,,,,,,,,,,,,,1137.8463,1138.918,1138.918,1139.9182,,,,,,0,0.5,,,,,,,,,0,41,41,40,1,,,,,,,,,,,,,,,,,,,,,,,,,,,,,,,,,,,,,,,,,,,,,,,,,,,,,,,,,,,,,,
,,,,,,,,Harbor,2,Female,Hispanic/Latino,n/a,2024-12-13_14h34.24.288,dissOSARI,2023.2.3,Win32,60.24096386,,,,,,,,,,,,,,,,,,,,,,,,,,,,,,,,1139.9186,1140.9528,1140.9528,1141.9501,,,,,,0,0.5,,,,,,,,,0,42,42,10,1,,,,,,,,,,,,,,,,,,,,,,,,,,,,,,,,,,,,,,,,,,,,,,,,,,,,,,,,,,,,,,
,,,,,,,,Harbor,2,Female,Hispanic/Latino,n/a,2024-12-13_14h34.24.288,dissOSARI,2023.2.3,Win32,60.24096386,,,,,,,,,,,,,,,,,,,,,,,,,,,,,,,,1141.9504,1142.9543,1142.9543,1143.9548,,,,,,0,0.5,,,,,,,,,0,43,43,8,1,,,,,,,,,,,,,,,,,,,,,,,,,,,,,,,,,,,,,,,,,,,,,,,,,,,,,,,,,,,,,,
,,,,,,,,Harbor,2,Female,Hispanic/Latino,n/a,2024-12-13_14h34.24.288,dissOSARI,2023.2.3,Win32,60.24096386,,,,,,,,,,,,,,,,,,,,,,,,,,,,,,,,1143.955,1145.0565,1145.0565,1146.0533,,,,,,0,0.5,,,,,,,,,0,44,44,25,1,,,,,,,,,,,,,,,,,,,,,,,,,,,,,,,,,,,,,,,,,,,,,,,,,,,,,,,,,,,,,,
,,,,,,,,Harbor,2,Female,Hispanic/Latino,n/a,2024-12-13_14h34.24.288,dissOSARI,2023.2.3,Win32,60.24096386,,,,,,,,,,,,,,,,,,,,,,,,,,,,,,,,1146.0536,1147.0583,1147.0583,1148.0579,,,,,,0,0.5,,,,,,,,,0,45,45,44,1,,,,,,,,,,,,,,,,,,,,,,,,,,,,,,,,,,,,,,,,,,,,,,,,,,,,,,,,,,,,,,
,,,,,,,,Harbor,2,Female,Hispanic/Latino,n/a,2024-12-13_14h34.24.288,dissOSARI,2023.2.3,Win32,60.24096386,,,,,,,,,,,,,,,,,,,,,,,,,,,,,,,,1148.058,1149.1437,1149.1437,1150.1429,,,,,,0,0.5,,,,,,,,,0,46,46,24,1,,,,,,,,,,,,,,,,,,,,,,,,,,,,,,,,,,,,,,,,,,,,,,,,,,,,,,,,,,,,,,
,,,,,,,,Harbor,2,Female,Hispanic/Latino,n/a,2024-12-13_14h34.24.288,dissOSARI,2023.2.3,Win32,60.24096386,,,,,,,,,,,,,,,,,,,,,,,,,,,,,,,,1150.1432,1151.2956,1151.2956,1152.2949,,,,,,0,0.5,,,,,,,,,0,47,47,42,1,,,,,,,,,,,,,,,,,,,,,,,,,,,,,,,,,,,,,,,,,,,,,,,,,,,,,,,,,,,,,,
,,,,,,,,Harbor,2,Female,Hispanic/Latino,n/a,2024-12-13_14h34.24.288,dissOSARI,2023.2.3,Win32,60.24096386,,,,,,,,,,,,,,,,,,,,,,,,,,,,,,,,1152.2952,1153.5806,1153.5806,1154.5773,,,,,,0,0.5,,,,,,,,,0,48,48,27,1,,,,,,,,,,,,,,,,,,,,,,,,,,,,,,,,,,,,,,,,,,,,,,,,,,,,,,,,,,,,,,
,,,,,,,,Harbor,2,Female,Hispanic/Latino,n/a,2024-12-13_14h34.24.288,dissOSARI,2023.2.3,Win32,60.24096386,,,,,,,,,,,,,,,,,,,,,,,,,,,,,,,,1154.5778,1155.4822,1155.4822,1156.479,,,,,,0,0.5,,,,,,,,,0,49,49,12,1,,,,,,,,,,,,,,,,,,,,,,,,,,,,,,,,,,,,,,,,,,,,,,,,,,,,,,,,,,,,,,
,,,,,,,,Harbor,2,Female,Hispanic/Latino,n/a,2024-12-13_14h34.24.288,dissOSARI,2023.2.3,Win32,60.24096386,,,,,,,,,,,,,,,,,,,,,,,,,,,,,,,,,,,,,,,,,,,,,,,,,,,,,,,,1156.4799,1158.0335,0.245043616,-0.332672482,1,0,0,0.7877,,,,,,,,,,,,,,,,,,,,,,,,,,,,,,,,,,,,,,,,,,,,,,,,,,,,,,
,,,,,,,,Harbor,2,Female,Hispanic/Latino,n/a,2024-12-13_14h34.24.288,dissOSARI,2023.2.3,Win32,60.24096386,,,,,,,,,,,,,,,,,,,,,,,,,,,,,,,,,,,,,,,,,,,,,,,,,,,,,,,,,,,,,,,,1158.0337,1158.7802,0.103092784,-0.340602696,1,0,0,0.4802,,,,,,,,,,,,,,,,,,,,,,,,,,,,,,,,,,,,,,,,,,,,,,
,,,,,,,,Harbor,2,Female,Hispanic/Latino,n/a,2024-12-13_14h34.24.288,dissOSARI,2023.2.3,Win32,60.24096386,,,,,,,,,,,,,,,,,,,,,,,,,,,,,,,,,,,,,,,,,,,,,,,,,,,,,,,,,,,,,,,,,,,,,,,,1158.7804,1159.3517,0.165741475,-0.340602696,1,0,0,0.3169,,,,,,,,,,,,,,,,,,,,,,,,,,,,,,,,,,,,,,
,,,,,,,,Harbor,2,Female,Hispanic/Latino,n/a,2024-12-13_14h34.24.288,dissOSARI,2023.2.3,Win32,60.24096386,,,,,,,,,,,,,,,,,,,,,,,,,,,,,,,,,,,,,,,,,,,,,,,,,,,,,,,,,,,,,,,,,,,,,,,,,,,,,,,,1159.3518,1160.0487,0.165741475,-0.340602696,1,0,0,0.4465,,,,,,,,,,,,,,,,,,,,,,,,,,,,,,
,,,,,,,,Harbor,2,Female,Hispanic/Latino,n/a,2024-12-13_14h34.24.288,dissOSARI,2023.2.3,Win32,60.24096386,,,,,,,,,,,,,,,,,,,,,,,,,,,,,,,,1160.053,1163.2212,1163.2212,1164.2185,,,,,,0,0.5,,,,,,,,,,,,,,,,,,,,,,,,,,,,,,,,,,,,,,,,,,,,,,0,0,0,7,1,,,,,,,,,,,,,,,,,,,,,,,,,
,,,,,,,,Harbor,2,Female,Hispanic/Latino,n/a,2024-12-13_14h34.24.288,dissOSARI,2023.2.3,Win32,60.24096386,,,,,,,,,,,,,,,,,,,,,,,,,,,,,,,,1164.219,1165.4731,1165.4731,1166.4731,,,,,,0,0.5,,,,,,,,,,,,,,,,,,,,,,,,,,,,,,,,,,,,,,,,,,,,,,0,1,1,6,1,,,,,,,,,,,,,,,,,,,,,,,,,
,,,,,,,,Harbor,2,Female,Hispanic/Latino,n/a,2024-12-13_14h34.24.288,dissOSARI,2023.2.3,Win32,60.24096386,,,,,,,,,,,,,,,,,,,,,,,,,,,,,,,,1166.4733,1168.0592,1168.0593,1169.0558,,,,,,1,0.5,,,,,,,,,,,,,,,,,,,,,,,,,,,,,,,,,,,,,,,,,,,,,,0,2,2,0,1,,,,,,,,,,,,,,,,,,,,,,,,,
,,,,,,,,Harbor,2,Female,Hispanic/Latino,n/a,2024-12-13_14h34.24.288,dissOSARI,2023.2.3,Win32,60.24096386,,,,,,,,,,,,,,,,,,,,,,,,,,,,,,,,1169.056,1173.2637,1173.2638,1174.2599,,,,,,0,0.5,,,,,,,,,,,,,,,,,,,,,,,,,,,,,,,,,,,,,,,,,,,,,,0,3,3,9,1,,,,,,,,,,,,,,,,,,,,,,,,,
,,,,,,,,Harbor,2,Female,Hispanic/Latino,n/a,2024-12-13_14h34.24.288,dissOSARI,2023.2.3,Win32,60.24096386,,,,,,,,,,,,,,,,,,,,,,,,,,,,,,,,1174.2602,1175.6143,1175.6143,1176.6119,,,,,,1,0.5,,,,,,,,,,,,,,,,,,,,,,,,,,,,,,,,,,,,,,,,,,,,,,0,4,4,2,1,,,,,,,,,,,,,,,,,,,,,,,,,
,,,,,,,,Harbor,2,Female,Hispanic/Latino,n/a,2024-12-13_14h34.24.288,dissOSARI,2023.2.3,Win32,60.24096386,,,,,,,,,,,,,,,,,,,,,,,,,,,,,,,,1176.6122,1177.7342,1177.7342,1178.7306,,,,,,0,0.5,,,,,,,,,,,,,,,,,,,,,,,,,,,,,,,,,,,,,,,,,,,,,,0,5,5,5,1,,,,,,,,,,,,,,,,,,,,,,,,,
,,,,,,,,Harbor,2,Female,Hispanic/Latino,n/a,2024-12-13_14h34.24.288,dissOSARI,2023.2.3,Win32,60.24096386,,,,,,,,,,,,,,,,,,,,,,,,,,,,,,,,1178.7313,1180.0353,1180.0353,1181.0327,,,,,,1,0.5,,,,,,,,,,,,,,,,,,,,,,,,,,,,,,,,,,,,,,,,,,,,,,0,6,6,3,1,,,,,,,,,,,,,,,,,,,,,,,,,
,,,,,,,,Harbor,2,Female,Hispanic/Latino,n/a,2024-12-13_14h34.24.288,dissOSARI,2023.2.3,Win32,60.24096386,,,,,,,,,,,,,,,,,,,,,,,,,,,,,,,,1181.0333,1182.0881,1182.0881,1183.084,,,,,,1,0.5,,,,,,,,,,,,,,,,,,,,,,,,,,,,,,,,,,,,,,,,,,,,,,0,7,7,1,1,,,,,,,,,,,,,,,,,,,,,,,,,
,,,,,,,,Harbor,2,Female,Hispanic/Latino,n/a,2024-12-13_14h34.24.288,dissOSARI,2023.2.3,Win32,60.24096386,,,,,,,,,,,,,,,,,,,,,,,,,,,,,,,,1183.0844,1200.7188,1200.7188,1201.7199,,,,,,0,0.5,,,,,,,,,,,,,,,,,,,,,,,,,,,,,,,,,,,,,,,,,,,,,,0,8,8,8,1,,,,,,,,,,,,,,,,,,,,,,,,,
,,,,,,,,Harbor,2,Female,Hispanic/Latino,n/a,2024-12-13_14h34.24.288,dissOSARI,2023.2.3,Win32,60.24096386,,,,,,,,,,,,,,,,,,,,,,,,,,,,,,,,1201.72,1203.0374,1203.0374,1204.0378,,,,,,1,0.5,,,,,,,,,,,,,,,,,,,,,,,,,,,,,,,,,,,,,,,,,,,,,,0,9,9,4,1,,,,,,,,,,,,,,,,,,,,,,,,,
,,,,,,,,Harbor,2,Female,Hispanic/Latino,n/a,2024-12-13_14h34.24.288,dissOSARI,2023.2.3,Win32,60.24096386,,,,,,,,,,,,,,,,,,,,,,,,,,,,,,,,1219.0986,1221.1523,1221.1523,1222.1514,,,,,,0,0.5,,,,,,,,,,,,,,,,,,,,,,,,,,,,,,,,,,,,,,,,,,,,,,,,,,,1204.0394,1219.0972,0,0,0,8,1,,,,,,,,,,,,,,,,,,
,,,,,,,,Harbor,2,Female,Hispanic/Latino,n/a,2024-12-13_14h34.24.288,dissOSARI,2023.2.3,Win32,60.24096386,,,,,,,,,,,,,,,,,,,,,,,,,,,,,,,,1222.1523,1223.8728,1223.8728,1224.869,,,,,,0,0.5,,,,,,,,,,,,,,,,,,,,,,,,,,,,,,,,,,,,,,,,,,,,,,,,,,,,,0,1,1,13,1,,,,,,,,,,,,,,,,,,
,,,,,,,,Harbor,2,Female,Hispanic/Latino,n/a,2024-12-13_14h34.24.288,dissOSARI,2023.2.3,Win32,60.24096386,,,,,,,,,,,,,,,,,,,,,,,,,,,,,,,,1224.8699,1226.0236,1226.0236,1227.0204,,,,,,0,0.5,,,,,,,,,,,,,,,,,,,,,,,,,,,,,,,,,,,,,,,,,,,,,,,,,,,,,0,2,2,29,1,,,,,,,,,,,,,,,,,,
,,,,,,,,Harbor,2,Female,Hispanic/Latino,n/a,2024-12-13_14h34.24.288,dissOSARI,2023.2.3,Win32,60.24096386,,,,,,,,,,,,,,,,,,,,,,,,,,,,,,,,1227.0207,1228.1754,1228.1755,1229.1723,,,,,,0,0.5,,,,,,,,,,,,,,,,,,,,,,,,,,,,,,,,,,,,,,,,,,,,,,,,,,,,,0,3,3,33,1,,,,,,,,,,,,,,,,,,
,,,,,,,,Harbor,2,Female,Hispanic/Latino,n/a,2024-12-13_14h34.24.288,dissOSARI,2023.2.3,Win32,60.24096386,,,,,,,,,,,,,,,,,,,,,,,,,,,,,,,,1229.1725,1230.211,1230.211,1231.2105,,,,,,0,0.5,,,,,,,,,,,,,,,,,,,,,,,,,,,,,,,,,,,,,,,,,,,,,,,,,,,,,0,4,4,59,1,,,,,,,,,,,,,,,,,,
,,,,,,,,Harbor,2,Female,Hispanic/Latino,n/a,2024-12-13_14h34.24.288,dissOSARI,2023.2.3,Win32,60.24096386,,,,,,,,,,,,,,,,,,,,,,,,,,,,,,,,1231.2108,1232.23,1232.23,1233.2294,,,,,,0,0.5,,,,,,,,,,,,,,,,,,,,,,,,,,,,,,,,,,,,,,,,,,,,,,,,,,,,,0,5,5,11,1,,,,,,,,,,,,,,,,,,
,,,,,,,,Harbor,2,Female,Hispanic/Latino,n/a,2024-12-13_14h34.24.288,dissOSARI,2023.2.3,Win32,60.24096386,,,,,,,,,,,,,,,,,,,,,,,,,,,,,,,,1233.2295,1234.2632,1234.2632,1235.2605,,,,,,0,0.5,,,,,,,,,,,,,,,,,,,,,,,,,,,,,,,,,,,,,,,,,,,,,,,,,,,,,0,6,6,3,1,,,,,,,,,,,,,,,,,,
,,,,,,,,Harbor,2,Female,Hispanic/Latino,n/a,2024-12-13_14h34.24.288,dissOSARI,2023.2.3,Win32,60.24096386,,,,,,,,,,,,,,,,,,,,,,,,,,,,,,,,1235.2608,1236.3498,1236.3498,1237.346,,,,,,0,0.5,,,,,,,,,,,,,,,,,,,,,,,,,,,,,,,,,,,,,,,,,,,,,,,,,,,,,0,7,7,23,1,,,,,,,,,,,,,,,,,,
,,,,,,,,Harbor,2,Female,Hispanic/Latino,n/a,2024-12-13_14h34.24.288,dissOSARI,2023.2.3,Win32,60.24096386,,,,,,,,,,,,,,,,,,,,,,,,,,,,,,,,1237.3468,1238.367,1238.367,1239.3671,,,,,,0,0.5,,,,,,,,,,,,,,,,,,,,,,,,,,,,,,,,,,,,,,,,,,,,,,,,,,,,,0,8,8,9,1,,,,,,,,,,,,,,,,,,
,,,,,,,,Harbor,2,Female,Hispanic/Latino,n/a,2024-12-13_14h34.24.288,dissOSARI,2023.2.3,Win32,60.24096386,,,,,,,,,,,,,,,,,,,,,,,,,,,,,,,,1239.3673,1240.4195,1240.4196,1241.4157,,,,,,1,0.5,,,,,,,,,,,,,,,,,,,,,,,,,,,,,,,,,,,,,,,,,,,,,,,,,,,,,0,9,9,68,1,,,,,,,,,,,,,,,,,,
,,,,,,,,Harbor,2,Female,Hispanic/Latino,n/a,2024-12-13_14h34.24.288,dissOSARI,2023.2.3,Win32,60.24096386,,,,,,,,,,,,,,,,,,,,,,,,,,,,,,,,1241.416,1242.6551,1242.6551,1243.6511,,,,,,0,0.5,,,,,,,,,,,,,,,,,,,,,,,,,,,,,,,,,,,,,,,,,,,,,,,,,,,,,0,10,10,38,1,,,,,,,,,,,,,,,,,,
,,,,,,,,Harbor,2,Female,Hispanic/Latino,n/a,2024-12-13_14h34.24.288,dissOSARI,2023.2.3,Win32,60.24096386,,,,,,,,,,,,,,,,,,,,,,,,,,,,,,,,1243.6517,1244.6384,1244.6384,1245.6358,,,,,,0,0.5,,,,,,,,,,,,,,,,,,,,,,,,,,,,,,,,,,,,,,,,,,,,,,,,,,,,,0,11,11,24,1,,,,,,,,,,,,,,,,,,
,,,,,,,,Harbor,2,Female,Hispanic/Latino,n/a,2024-12-13_14h34.24.288,dissOSARI,2023.2.3,Win32,60.24096386,,,,,,,,,,,,,,,,,,,,,,,,,,,,,,,,1245.6361,1247.2577,1247.2577,1248.2541,,,,,,0,0.5,,,,,,,,,,,,,,,,,,,,,,,,,,,,,,,,,,,,,,,,,,,,,,,,,,,,,0,12,12,32,1,,,,,,,,,,,,,,,,,,
,,,,,,,,Harbor,2,Female,Hispanic/Latino,n/a,2024-12-13_14h34.24.288,dissOSARI,2023.2.3,Win32,60.24096386,,,,,,,,,,,,,,,,,,,,,,,,,,,,,,,,1248.2545,1249.6593,1249.6594,1250.6566,,,,,,1,0.5,,,,,,,,,,,,,,,,,,,,,,,,,,,,,,,,,,,,,,,,,,,,,,,,,,,,,0,13,13,69,1,,,,,,,,,,,,,,,,,,
,,,,,,,,Harbor,2,Female,Hispanic/Latino,n/a,2024-12-13_14h34.24.288,dissOSARI,2023.2.3,Win32,60.24096386,,,,,,,,,,,,,,,,,,,,,,,,,,,,,,,,1250.6571,1252.2787,1252.2788,1253.2757,,,,,,1,0.5,,,,,,,,,,,,,,,,,,,,,,,,,,,,,,,,,,,,,,,,,,,,,,,,,,,,,0,14,14,63,1,,,,,,,,,,,,,,,,,,
,,,,,,,,Harbor,2,Female,Hispanic/Latino,n/a,2024-12-13_14h34.24.288,dissOSARI,2023.2.3,Win32,60.24096386,,,,,,,,,,,,,,,,,,,,,,,,,,,,,,,,1253.2763,1254.9471,1254.9471,1255.9444,,,,,,1,0.5,,,,,,,,,,,,,,,,,,,,,,,,,,,,,,,,,,,,,,,,,,,,,,,,,,,,,0,15,15,65,1,,,,,,,,,,,,,,,,,,
,,,,,,,,Harbor,2,Female,Hispanic/Latino,n/a,2024-12-13_14h34.24.288,dissOSARI,2023.2.3,Win32,60.24096386,,,,,,,,,,,,,,,,,,,,,,,,,,,,,,,,1255.9446,1257.366,1257.366,1258.3628,,,,,,0,0.5,,,,,,,,,,,,,,,,,,,,,,,,,,,,,,,,,,,,,,,,,,,,,,,,,,,,,0,16,16,17,1,,,,,,,,,,,,,,,,,,
,,,,,,,,Harbor,2,Female,Hispanic/Latino,n/a,2024-12-13_14h34.24.288,dissOSARI,2023.2.3,Win32,60.24096386,,,,,,,,,,,,,,,,,,,,,,,,,,,,,,,,1258.363,1259.5178,1259.5178,1260.5178,,,,,,0,0.5,,,,,,,,,,,,,,,,,,,,,,,,,,,,,,,,,,,,,,,,,,,,,,,,,,,,,0,17,17,56,1,,,,,,,,,,,,,,,,,,
,,,,,,,,Harbor,2,Female,Hispanic/Latino,n/a,2024-12-13_14h34.24.288,dissOSARI,2023.2.3,Win32,60.24096386,,,,,,,,,,,,,,,,,,,,,,,,,,,,,,,,1260.5179,1261.6033,1261.6034,1262.5999,,,,,,0,0.5,,,,,,,,,,,,,,,,,,,,,,,,,,,,,,,,,,,,,,,,,,,,,,,,,,,,,0,18,18,22,1,,,,,,,,,,,,,,,,,,
,,,,,,,,Harbor,2,Female,Hispanic/Latino,n/a,2024-12-13_14h34.24.288,dissOSARI,2023.2.3,Win32,60.24096386,,,,,,,,,,,,,,,,,,,,,,,,,,,,,,,,1262.6002,1263.7718,1263.7718,1264.7687,,,,,,0,0.5,,,,,,,,,,,,,,,,,,,,,,,,,,,,,,,,,,,,,,,,,,,,,,,,,,,,,0,19,19,43,1,,,,,,,,,,,,,,,,,,
,,,,,,,,Harbor,2,Female,Hispanic/Latino,n/a,2024-12-13_14h34.24.288,dissOSARI,2023.2.3,Win32,60.24096386,,,,,,,,,,,,,,,,,,,,,,,,,,,,,,,,1264.7694,1265.8071,1265.8071,1266.8073,,,,,,0,0.5,,,,,,,,,,,,,,,,,,,,,,,,,,,,,,,,,,,,,,,,,,,,,,,,,,,,,0,20,20,0,1,,,,,,,,,,,,,,,,,,
,,,,,,,,Harbor,2,Female,Hispanic/Latino,n/a,2024-12-13_14h34.24.288,dissOSARI,2023.2.3,Win32,60.24096386,,,,,,,,,,,,,,,,,,,,,,,,,,,,,,,,1266.8074,1267.9081,1267.9081,1268.9054,,,,,,0,0.5,,,,,,,,,,,,,,,,,,,,,,,,,,,,,,,,,,,,,,,,,,,,,,,,,,,,,0,21,21,39,1,,,,,,,,,,,,,,,,,,
,,,,,,,,Harbor,2,Female,Hispanic/Latino,n/a,2024-12-13_14h34.24.288,dissOSARI,2023.2.3,Win32,60.24096386,,,,,,,,,,,,,,,,,,,,,,,,,,,,,,,,1268.906,1270.0438,1270.0438,1271.0402,,,,,,0,0.5,,,,,,,,,,,,,,,,,,,,,,,,,,,,,,,,,,,,,,,,,,,,,,,,,,,,,0,22,22,27,1,,,,,,,,,,,,,,,,,,
,,,,,,,,Harbor,2,Female,Hispanic/Latino,n/a,2024-12-13_14h34.24.288,dissOSARI,2023.2.3,Win32,60.24096386,,,,,,,,,,,,,,,,,,,,,,,,,,,,,,,,1271.0406,1272.1294,1272.1294,1273.1253,,,,,,0,0.5,,,,,,,,,,,,,,,,,,,,,,,,,,,,,,,,,,,,,,,,,,,,,,,,,,,,,0,23,23,16,1,,,,,,,,,,,,,,,,,,
,,,,,,,,Harbor,2,Female,Hispanic/Latino,n/a,2024-12-13_14h34.24.288,dissOSARI,2023.2.3,Win32,60.24096386,,,,,,,,,,,,,,,,,,,,,,,,,,,,,,,,1273.1256,1274.5637,1274.5637,1275.5606,,,,,,0,0.5,,,,,,,,,,,,,,,,,,,,,,,,,,,,,,,,,,,,,,,,,,,,,,,,,,,,,0,24,24,10,1,,,,,,,,,,,,,,,,,,
,,,,,,,,Harbor,2,Female,Hispanic/Latino,n/a,2024-12-13_14h34.24.288,dissOSARI,2023.2.3,Win32,60.24096386,,,,,,,,,,,,,,,,,,,,,,,,,,,,,,,,1275.5609,1276.7163,1276.7163,1277.7127,,,,,,0,0.5,,,,,,,,,,,,,,,,,,,,,,,,,,,,,,,,,,,,,,,,,,,,,,,,,,,,,0,25,25,49,1,,,,,,,,,,,,,,,,,,
,,,,,,,,Harbor,2,Female,Hispanic/Latino,n/a,2024-12-13_14h34.24.288,dissOSARI,2023.2.3,Win32,60.24096386,,,,,,,,,,,,,,,,,,,,,,,,,,,,,,,,1277.7135,1279.084,1279.084,1280.081,,,,,,1,0.5,,,,,,,,,,,,,,,,,,,,,,,,,,,,,,,,,,,,,,,,,,,,,,,,,,,,,0,26,26,78,1,,,,,,,,,,,,,,,,,,
,,,,,,,,Harbor,2,Female,Hispanic/Latino,n/a,2024-12-13_14h34.24.288,dissOSARI,2023.2.3,Win32,60.24096386,,,,,,,,,,,,,,,,,,,,,,,,,,,,,,,,1280.081,1281.3528,1281.3528,1282.3525,,,,,,1,0.5,,,,,,,,,,,,,,,,,,,,,,,,,,,,,,,,,,,,,,,,,,,,,,,,,,,,,0,27,27,64,1,,,,,,,,,,,,,,,,,,
,,,,,,,,Harbor,2,Female,Hispanic/Latino,n/a,2024-12-13_14h34.24.288,dissOSARI,2023.2.3,Win32,60.24096386,,,,,,,,,,,,,,,,,,,,,,,,,,,,,,,,1282.3527,1283.5549,1283.5549,1284.5517,,,,,,0,0.5,,,,,,,,,,,,,,,,,,,,,,,,,,,,,,,,,,,,,,,,,,,,,,,,,,,,,0,28,28,21,1,,,,,,,,,,,,,,,,,,
,,,,,,,,Harbor,2,Female,Hispanic/Latino,n/a,2024-12-13_14h34.24.288,dissOSARI,2023.2.3,Win32,60.24096386,,,,,,,,,,,,,,,,,,,,,,,,,,,,,,,,1284.5522,1285.7395,1285.7396,1286.7363,,,,,,0,0.5,,,,,,,,,,,,,,,,,,,,,,,,,,,,,,,,,,,,,,,,,,,,,,,,,,,,,0,29,29,20,1,,,,,,,,,,,,,,,,,,
,,,,,,,,Harbor,2,Female,Hispanic/Latino,n/a,2024-12-13_14h34.24.288,dissOSARI,2023.2.3,Win32,60.24096386,,,,,,,,,,,,,,,,,,,,,,,,,,,,,,,,1286.7366,1287.8415,1287.8415,1288.8419,,,,,,1,0.5,,,,,,,,,,,,,,,,,,,,,,,,,,,,,,,,,,,,,,,,,,,,,,,,,,,,,0,30,30,66,1,,,,,,,,,,,,,,,,,,
,,,,,,,,Harbor,2,Female,Hispanic/Latino,n/a,2024-12-13_14h34.24.288,dissOSARI,2023.2.3,Win32,60.24096386,,,,,,,,,,,,,,,,,,,,,,,,,,,,,,,,1288.8422,1290.4769,1290.4769,1291.4741,,,,,,0,0.5,,,,,,,,,,,,,,,,,,,,,,,,,,,,,,,,,,,,,,,,,,,,,,,,,,,,,0,31,31,54,1,,,,,,,,,,,,,,,,,,
,,,,,,,,Harbor,2,Female,Hispanic/Latino,n/a,2024-12-13_14h34.24.288,dissOSARI,2023.2.3,Win32,60.24096386,,,,,,,,,,,,,,,,,,,,,,,,,,,,,,,,1291.4746,1292.6623,1292.6623,1293.6593,,,,,,0,0.5,,,,,,,,,,,,,,,,,,,,,,,,,,,,,,,,,,,,,,,,,,,,,,,,,,,,,0,32,32,51,1,,,,,,,,,,,,,,,,,,
,,,,,,,,Harbor,2,Female,Hispanic/Latino,n/a,2024-12-13_14h34.24.288,dissOSARI,2023.2.3,Win32,60.24096386,,,,,,,,,,,,,,,,,,,,,,,,,,,,,,,,1293.6601,1294.9136,1294.9136,1295.9106,,,,,,0,0.5,,,,,,,,,,,,,,,,,,,,,,,,,,,,,,,,,,,,,,,,,,,,,,,,,,,,,0,33,33,5,1,,,,,,,,,,,,,,,,,,
,,,,,,,,Harbor,2,Female,Hispanic/Latino,n/a,2024-12-13_14h34.24.288,dissOSARI,2023.2.3,Win32,60.24096386,,,,,,,,,,,,,,,,,,,,,,,,,,,,,,,,1295.9108,1297.5667,1297.5667,1298.5626,,,,,,0,0.5,,,,,,,,,,,,,,,,,,,,,,,,,,,,,,,,,,,,,,,,,,,,,,,,,,,,,0,34,34,50,1,,,,,,,,,,,,,,,,,,
,,,,,,,,Harbor,2,Female,Hispanic/Latino,n/a,2024-12-13_14h34.24.288,dissOSARI,2023.2.3,Win32,60.24096386,,,,,,,,,,,,,,,,,,,,,,,,,,,,,,,,1298.5629,1299.9851,1299.9851,1300.9821,,,,,,0,0.5,,,,,,,,,,,,,,,,,,,,,,,,,,,,,,,,,,,,,,,,,,,,,,,,,,,,,0,35,35,30,1,,,,,,,,,,,,,,,,,,
,,,,,,,,Harbor,2,Female,Hispanic/Latino,n/a,2024-12-13_14h34.24.288,dissOSARI,2023.2.3,Win32,60.24096386,,,,,,,,,,,,,,,,,,,,,,,,,,,,,,,,1300.9828,1302.2367,1302.2367,1303.2373,,,,,,1,0.5,,,,,,,,,,,,,,,,,,,,,,,,,,,,,,,,,,,,,,,,,,,,,,,,,,,,,0,36,36,60,1,,,,,,,,,,,,,,,,,,
,,,,,,,,Harbor,2,Female,Hispanic/Latino,n/a,2024-12-13_14h34.24.288,dissOSARI,2023.2.3,Win32,60.24096386,,,,,,,,,,,,,,,,,,,,,,,,,,,,,,,,1303.2376,1304.7218,1304.7218,1305.7219,,,,,,0,0.5,,,,,,,,,,,,,,,,,,,,,,,,,,,,,,,,,,,,,,,,,,,,,,,,,,,,,0,37,37,57,1,,,,,,,,,,,,,,,,,,
,,,,,,,,Harbor,2,Female,Hispanic/Latino,n/a,2024-12-13_14h34.24.288,dissOSARI,2023.2.3,Win32,60.24096386,,,,,,,,,,,,,,,,,,,,,,,,,,,,,,,,1305.7222,1306.8236,1306.8236,1307.8243,,,,,,0,0.5,,,,,,,,,,,,,,,,,,,,,,,,,,,,,,,,,,,,,,,,,,,,,,,,,,,,,0,38,38,31,1,,,,,,,,,,,,,,,,,,
,,,,,,,,Harbor,2,Female,Hispanic/Latino,n/a,2024-12-13_14h34.24.288,dissOSARI,2023.2.3,Win32,60.24096386,,,,,,,,,,,,,,,,,,,,,,,,,,,,,,,,1307.8245,1309.0753,1309.0753,1310.0725,,,,,,1,0.5,,,,,,,,,,,,,,,,,,,,,,,,,,,,,,,,,,,,,,,,,,,,,,,,,,,,,0,39,39,71,1,,,,,,,,,,,,,,,,,,
,,,,,,,,Harbor,2,Female,Hispanic/Latino,n/a,2024-12-13_14h34.24.288,dissOSARI,2023.2.3,Win32,60.24096386,,,,,,,,,,,,,,,,,,,,,,,,,,,,,,,,1310.0727,1311.3108,1311.3109,1312.3108,,,,,,0,0.5,,,,,,,,,,,,,,,,,,,,,,,,,,,,,,,,,,,,,,,,,,,,,,,,,,,,,0,40,40,12,1,,,,,,,,,,,,,,,,,,
,,,,,,,,Harbor,2,Female,Hispanic/Latino,n/a,2024-12-13_14h34.24.288,dissOSARI,2023.2.3,Win32,60.24096386,,,,,,,,,,,,,,,,,,,,,,,,,,,,,,,,1312.311,1313.7259,1313.726,1314.7269,,,,,,0,0.5,,,,,,,,,,,,,,,,,,,,,,,,,,,,,,,,,,,,,,,,,,,,,,,,,,,,,0,41,41,7,1,,,,,,,,,,,,,,,,,,
,,,,,,,,Harbor,2,Female,Hispanic/Latino,n/a,2024-12-13_14h34.24.288,dissOSARI,2023.2.3,Win32,60.24096386,,,,,,,,,,,,,,,,,,,,,,,,,,,,,,,,1314.7275,1316.1278,1316.1279,1317.1285,,,,,,0,0.5,,,,,,,,,,,,,,,,,,,,,,,,,,,,,,,,,,,,,,,,,,,,,,,,,,,,,0,42,42,28,1,,,,,,,,,,,,,,,,,,
,,,,,,,,Harbor,2,Female,Hispanic/Latino,n/a,2024-12-13_14h34.24.288,dissOSARI,2023.2.3,Win32,60.24096386,,,,,,,,,,,,,,,,,,,,,,,,,,,,,,,,1317.1291,1318.4963,1318.4963,1319.4973,,,,,,0,0.5,,,,,,,,,,,,,,,,,,,,,,,,,,,,,,,,,,,,,,,,,,,,,,,,,,,,,0,43,43,44,1,,,,,,,,,,,,,,,,,,
,,,,,,,,Harbor,2,Female,Hispanic/Latino,n/a,2024-12-13_14h34.24.288,dissOSARI,2023.2.3,Win32,60.24096386,,,,,,,,,,,,,,,,,,,,,,,,,,,,,,,,1319.498,1324.0012,1324.0012,1325.0016,,,,,,0,0.5,,,,,,,,,,,,,,,,,,,,,,,,,,,,,,,,,,,,,,,,,,,,,,,,,,,,,0,44,44,40,1,,,,,,,,,,,,,,,,,,
,,,,,,,,Harbor,2,Female,Hispanic/Latino,n/a,2024-12-13_14h34.24.288,dissOSARI,2023.2.3,Win32,60.24096386,,,,,,,,,,,,,,,,,,,,,,,,,,,,,,,,1325.002,1326.7367,1326.7367,1327.7375,,,,,,0,0.5,,,,,,,,,,,,,,,,,,,,,,,,,,,,,,,,,,,,,,,,,,,,,,,,,,,,,0,45,45,6,1,,,,,,,,,,,,,,,,,,
,,,,,,,,Harbor,2,Female,Hispanic/Latino,n/a,2024-12-13_14h34.24.288,dissOSARI,2023.2.3,Win32,60.24096386,,,,,,,,,,,,,,,,,,,,,,,,,,,,,,,,1327.7385,1328.7718,1328.7718,1329.7724,,,,,,0,0.5,,,,,,,,,,,,,,,,,,,,,,,,,,,,,,,,,,,,,,,,,,,,,,,,,,,,,0,46,46,15,1,,,,,,,,,,,,,,,,,,
,,,,,,,,Harbor,2,Female,Hispanic/Latino,n/a,2024-12-13_14h34.24.288,dissOSARI,2023.2.3,Win32,60.24096386,,,,,,,,,,,,,,,,,,,,,,,,,,,,,,,,1329.773,1331.0247,1331.0247,1332.0246,,,,,,1,0.5,,,,,,,,,,,,,,,,,,,,,,,,,,,,,,,,,,,,,,,,,,,,,,,,,,,,,0,47,47,72,1,,,,,,,,,,,,,,,,,,
,,,,,,,,Harbor,2,Female,Hispanic/Latino,n/a,2024-12-13_14h34.24.288,dissOSARI,2023.2.3,Win32,60.24096386,,,,,,,,,,,,,,,,,,,,,,,,,,,,,,,,1332.0253,1333.2254,1333.2254,1334.2263,,,,,,0,0.5,,,,,,,,,,,,,,,,,,,,,,,,,,,,,,,,,,,,,,,,,,,,,,,,,,,,,0,48,48,46,1,,,,,,,,,,,,,,,,,,
,,,,,,,,Harbor,2,Female,Hispanic/Latino,n/a,2024-12-13_14h34.24.288,dissOSARI,2023.2.3,Win32,60.24096386,,,,,,,,,,,,,,,,,,,,,,,,,,,,,,,,1334.2269,1337.5791,1337.5792,1338.5791,,,,,,0,0.5,,,,,,,,,,,,,,,,,,,,,,,,,,,,,,,,,,,,,,,,,,,,,,,,,,,,,0,49,49,1,1,,,,,,,,,,,,,,,,,,
,,,,,,,,Harbor,2,Female,Hispanic/Latino,n/a,2024-12-13_14h34.24.288,dissOSARI,2023.2.3,Win32,60.24096386,,,,,,,,,,,,,,,,,,,,,,,,,,,,,,,,1338.5793,1340.4148,1340.4149,1341.4155,,,,,,1,0.5,,,,,,,,,,,,,,,,,,,,,,,,,,,,,,,,,,,,,,,,,,,,,,,,,,,,,0,50,50,61,1,,,,,,,,,,,,,,,,,,
,,,,,,,,Harbor,2,Female,Hispanic/Latino,n/a,2024-12-13_14h34.24.288,dissOSARI,2023.2.3,Win32,60.24096386,,,,,,,,,,,,,,,,,,,,,,,,,,,,,,,,1341.4162,1351.1904,1351.1904,1352.1909,,,,,,0,0.5,,,,,,,,,,,,,,,,,,,,,,,,,,,,,,,,,,,,,,,,,,,,,,,,,,,,,0,51,51,37,1,,,,,,,,,,,,,,,,,,
,,,,,,,,Harbor,2,Female,Hispanic/Latino,n/a,2024-12-13_14h34.24.288,dissOSARI,2023.2.3,Win32,60.24096386,,,,,,,,,,,,,,,,,,,,,,,,,,,,,,,,1352.1916,1353.3424,1353.3424,1354.3429,,,,,,0,0.5,,,,,,,,,,,,,,,,,,,,,,,,,,,,,,,,,,,,,,,,,,,,,,,,,,,,,0,52,52,52,1,,,,,,,,,,,,,,,,,,
,,,,,,,,Harbor,2,Female,Hispanic/Latino,n/a,2024-12-13_14h34.24.288,dissOSARI,2023.2.3,Win32,60.24096386,,,,,,,,,,,,,,,,,,,,,,,,,,,,,,,,1354.3437,1355.2769,1355.2769,1356.2777,,,,,,0,0.5,,,,,,,,,,,,,,,,,,,,,,,,,,,,,,,,,,,,,,,,,,,,,,,,,,,,,0,53,53,47,1,,,,,,,,,,,,,,,,,,
,,,,,,,,Harbor,2,Female,Hispanic/Latino,n/a,2024-12-13_14h34.24.288,dissOSARI,2023.2.3,Win32,60.24096386,,,,,,,,,,,,,,,,,,,,,,,,,,,,,,,,1356.2784,1357.5296,1357.5297,1358.5289,,,,,,1,0.5,,,,,,,,,,,,,,,,,,,,,,,,,,,,,,,,,,,,,,,,,,,,,,,,,,,,,0,54,54,70,1,,,,,,,,,,,,,,,,,,
,,,,,,,,Harbor,2,Female,Hispanic/Latino,n/a,2024-12-13_14h34.24.288,dissOSARI,2023.2.3,Win32,60.24096386,,,,,,,,,,,,,,,,,,,,,,,,,,,,,,,,1358.5291,1359.8142,1359.8142,1360.8148,,,,,,0,0.5,,,,,,,,,,,,,,,,,,,,,,,,,,,,,,,,,,,,,,,,,,,,,,,,,,,,,0,55,55,34,1,,,,,,,,,,,,,,,,,,
,,,,,,,,Harbor,2,Female,Hispanic/Latino,n/a,2024-12-13_14h34.24.288,dissOSARI,2023.2.3,Win32,60.24096386,,,,,,,,,,,,,,,,,,,,,,,,,,,,,,,,1360.8154,1361.8491,1361.8491,1362.8502,,,,,,0,0.5,,,,,,,,,,,,,,,,,,,,,,,,,,,,,,,,,,,,,,,,,,,,,,,,,,,,,0,56,56,55,1,,,,,,,,,,,,,,,,,,
,,,,,,,,Harbor,2,Female,Hispanic/Latino,n/a,2024-12-13_14h34.24.288,dissOSARI,2023.2.3,Win32,60.24096386,,,,,,,,,,,,,,,,,,,,,,,,,,,,,,,,1362.8511,1363.8842,1363.8843,1364.8849,,,,,,1,0.5,,,,,,,,,,,,,,,,,,,,,,,,,,,,,,,,,,,,,,,,,,,,,,,,,,,,,0,57,57,79,1,,,,,,,,,,,,,,,,,,
,,,,,,,,Harbor,2,Female,Hispanic/Latino,n/a,2024-12-13_14h34.24.288,dissOSARI,2023.2.3,Win32,60.24096386,,,,,,,,,,,,,,,,,,,,,,,,,,,,,,,,1364.8857,1365.9027,1365.9027,1366.9033,,,,,,0,0.5,,,,,,,,,,,,,,,,,,,,,,,,,,,,,,,,,,,,,,,,,,,,,,,,,,,,,0,58,58,26,1,,,,,,,,,,,,,,,,,,
,,,,,,,,Harbor,2,Female,Hispanic/Latino,n/a,2024-12-13_14h34.24.288,dissOSARI,2023.2.3,Win32,60.24096386,,,,,,,,,,,,,,,,,,,,,,,,,,,,,,,,1366.904,1367.9875,1367.9876,1368.9882,,,,,,0,0.5,,,,,,,,,,,,,,,,,,,,,,,,,,,,,,,,,,,,,,,,,,,,,,,,,,,,,0,59,59,42,1,,,,,,,,,,,,,,,,,,
,,,,,,,,Harbor,2,Female,Hispanic/Latino,n/a,2024-12-13_14h34.24.288,dissOSARI,2023.2.3,Win32,60.24096386,,,,,,,,,,,,,,,,,,,,,,,,,,,,,,,,1368.989,1370.106,1370.106,1371.1065,,,,,,0,0.5,,,,,,,,,,,,,,,,,,,,,,,,,,,,,,,,,,,,,,,,,,,,,,,,,,,,,0,60,60,53,1,,,,,,,,,,,,,,,,,,
,,,,,,,,Harbor,2,Female,Hispanic/Latino,n/a,2024-12-13_14h34.24.288,dissOSARI,2023.2.3,Win32,60.24096386,,,,,,,,,,,,,,,,,,,,,,,,,,,,,,,,1371.1072,1372.2075,1372.2075,1373.2084,,,,,,0,0.5,,,,,,,,,,,,,,,,,,,,,,,,,,,,,,,,,,,,,,,,,,,,,,,,,,,,,0,61,61,45,1,,,,,,,,,,,,,,,,,,
,,,,,,,,Harbor,2,Female,Hispanic/Latino,n/a,2024-12-13_14h34.24.288,dissOSARI,2023.2.3,Win32,60.24096386,,,,,,,,,,,,,,,,,,,,,,,,,,,,,,,,1373.2091,1374.5131,1374.5131,1375.5098,,,,,,1,0.5,,,,,,,,,,,,,,,,,,,,,,,,,,,,,,,,,,,,,,,,,,,,,,,,,,,,,0,62,62,76,1,,,,,,,,,,,,,,,,,,
,,,,,,,,Harbor,2,Female,Hispanic/Latino,n/a,2024-12-13_14h34.24.288,dissOSARI,2023.2.3,Win32,60.24096386,,,,,,,,,,,,,,,,,,,,,,,,,,,,,,,,1375.51,1379.9846,1379.9846,1380.9814,,,,,,1,0.5,,,,,,,,,,,,,,,,,,,,,,,,,,,,,,,,,,,,,,,,,,,,,,,,,,,,,0,63,63,62,1,,,,,,,,,,,,,,,,,,
,,,,,,,,Harbor,2,Female,Hispanic/Latino,n/a,2024-12-13_14h34.24.288,dissOSARI,2023.2.3,Win32,60.24096386,,,,,,,,,,,,,,,,,,,,,,,,,,,,,,,,1380.9816,1382.386,1382.386,1383.3868,,,,,,0,0.5,,,,,,,,,,,,,,,,,,,,,,,,,,,,,,,,,,,,,,,,,,,,,,,,,,,,,0,64,64,19,1,,,,,,,,,,,,,,,,,,
,,,,,,,,Harbor,2,Female,Hispanic/Latino,n/a,2024-12-13_14h34.24.288,dissOSARI,2023.2.3,Win32,60.24096386,,,,,,,,,,,,,,,,,,,,,,,,,,,,,,,,1383.3872,1384.7377,1384.7377,1385.7389,,,,,,1,0.5,,,,,,,,,,,,,,,,,,,,,,,,,,,,,,,,,,,,,,,,,,,,,,,,,,,,,0,65,65,73,1,,,,,,,,,,,,,,,,,,
,,,,,,,,Harbor,2,Female,Hispanic/Latino,n/a,2024-12-13_14h34.24.288,dissOSARI,2023.2.3,Win32,60.24096386,,,,,,,,,,,,,,,,,,,,,,,,,,,,,,,,1385.7391,1387.24,1387.24,1388.2368,,,,,,1,0.5,,,,,,,,,,,,,,,,,,,,,,,,,,,,,,,,,,,,,,,,,,,,,,,,,,,,,0,66,66,67,1,,,,,,,,,,,,,,,,,,
,,,,,,,,Harbor,2,Female,Hispanic/Latino,n/a,2024-12-13_14h34.24.288,dissOSARI,2023.2.3,Win32,60.24096386,,,,,,,,,,,,,,,,,,,,,,,,,,,,,,,,1388.237,1394.1633,1394.1633,1395.1601,,,,,,0,0.5,,,,,,,,,,,,,,,,,,,,,,,,,,,,,,,,,,,,,,,,,,,,,,,,,,,,,0,67,67,4,1,,,,,,,,,,,,,,,,,,
,,,,,,,,Harbor,2,Female,Hispanic/Latino,n/a,2024-12-13_14h34.24.288,dissOSARI,2023.2.3,Win32,60.24096386,,,,,,,,,,,,,,,,,,,,,,,,,,,,,,,,1395.1611,1396.2655,1396.2655,1397.2617,,,,,,0,0.5,,,,,,,,,,,,,,,,,,,,,,,,,,,,,,,,,,,,,,,,,,,,,,,,,,,,,0,68,68,41,1,,,,,,,,,,,,,,,,,,
,,,,,,,,Harbor,2,Female,Hispanic/Latino,n/a,2024-12-13_14h34.24.288,dissOSARI,2023.2.3,Win32,60.24096386,,,,,,,,,,,,,,,,,,,,,,,,,,,,,,,,1397.2624,1398.4996,1398.4996,1399.4968,,,,,,0,0.5,,,,,,,,,,,,,,,,,,,,,,,,,,,,,,,,,,,,,,,,,,,,,,,,,,,,,0,69,69,14,1,,,,,,,,,,,,,,,,,,
,,,,,,,,Harbor,2,Female,Hispanic/Latino,n/a,2024-12-13_14h34.24.288,dissOSARI,2023.2.3,Win32,60.24096386,,,,,,,,,,,,,,,,,,,,,,,,,,,,,,,,1399.4976,1400.3685,1400.3686,1401.3684,,,,,,0,0.5,,,,,,,,,,,,,,,,,,,,,,,,,,,,,,,,,,,,,,,,,,,,,,,,,,,,,0,70,70,35,1,,,,,,,,,,,,,,,,,,
,,,,,,,,Harbor,2,Female,Hispanic/Latino,n/a,2024-12-13_14h34.24.288,dissOSARI,2023.2.3,Win32,60.24096386,,,,,,,,,,,,,,,,,,,,,,,,,,,,,,,,1401.3686,1402.5371,1402.5371,1403.533,,,,,,1,0.5,,,,,,,,,,,,,,,,,,,,,,,,,,,,,,,,,,,,,,,,,,,,,,,,,,,,,0,71,71,77,1,,,,,,,,,,,,,,,,,,
,,,,,,,,Harbor,2,Female,Hispanic/Latino,n/a,2024-12-13_14h34.24.288,dissOSARI,2023.2.3,Win32,60.24096386,,,,,,,,,,,,,,,,,,,,,,,,,,,,,,,,1403.5332,1406.356,1406.3561,1407.353,,,,,,0,0.5,,,,,,,,,,,,,,,,,,,,,,,,,,,,,,,,,,,,,,,,,,,,,,,,,,,,,0,72,72,2,1,,,,,,,,,,,,,,,,,,
,,,,,,,,Harbor,2,Female,Hispanic/Latino,n/a,2024-12-13_14h34.24.288,dissOSARI,2023.2.3,Win32,60.24096386,,,,,,,,,,,,,,,,,,,,,,,,,,,,,,,,1407.3534,1408.5246,1408.5247,1409.5218,,,,,,0,0.5,,,,,,,,,,,,,,,,,,,,,,,,,,,,,,,,,,,,,,,,,,,,,,,,,,,,,0,73,73,58,1,,,,,,,,,,,,,,,,,,
,,,,,,,,Harbor,2,Female,Hispanic/Latino,n/a,2024-12-13_14h34.24.288,dissOSARI,2023.2.3,Win32,60.24096386,,,,,,,,,,,,,,,,,,,,,,,,,,,,,,,,1409.5225,1410.6769,1410.677,1411.6736,,,,,,0,0.5,,,,,,,,,,,,,,,,,,,,,,,,,,,,,,,,,,,,,,,,,,,,,,,,,,,,,0,74,74,48,1,,,,,,,,,,,,,,,,,,
,,,,,,,,Harbor,2,Female,Hispanic/Latino,n/a,2024-12-13_14h34.24.288,dissOSARI,2023.2.3,Win32,60.24096386,,,,,,,,,,,,,,,,,,,,,,,,,,,,,,,,1411.6742,1412.7612,1412.7612,1413.7584,,,,,,1,0.5,,,,,,,,,,,,,,,,,,,,,,,,,,,,,,,,,,,,,,,,,,,,,,,,,,,,,0,75,75,75,1,,,,,,,,,,,,,,,,,,
,,,,,,,,Harbor,2,Female,Hispanic/Latino,n/a,2024-12-13_14h34.24.288,dissOSARI,2023.2.3,Win32,60.24096386,,,,,,,,,,,,,,,,,,,,,,,,,,,,,,,,1413.7586,1415.2631,1415.2631,1416.2606,,,,,,0,0.5,,,,,,,,,,,,,,,,,,,,,,,,,,,,,,,,,,,,,,,,,,,,,,,,,,,,,0,76,76,25,1,,,,,,,,,,,,,,,,,,
,,,,,,,,Harbor,2,Female,Hispanic/Latino,n/a,2024-12-13_14h34.24.288,dissOSARI,2023.2.3,Win32,60.24096386,,,,,,,,,,,,,,,,,,,,,,,,,,,,,,,,1416.261,1417.4151,1417.4151,1418.4154,,,,,,0,0.5,,,,,,,,,,,,,,,,,,,,,,,,,,,,,,,,,,,,,,,,,,,,,,,,,,,,,0,77,77,36,1,,,,,,,,,,,,,,,,,,
,,,,,,,,Harbor,2,Female,Hispanic/Latino,n/a,2024-12-13_14h34.24.288,dissOSARI,2023.2.3,Win32,60.24096386,,,,,,,,,,,,,,,,,,,,,,,,,,,,,,,,1418.4156,1419.6668,1419.6669,1420.6646,,,,,,1,0.5,,,,,,,,,,,,,,,,,,,,,,,,,,,,,,,,,,,,,,,,,,,,,,,,,,,,,0,78,78,74,1,,,,,,,,,,,,,,,,,,
,,,,,,,,Harbor,2,Female,Hispanic/Latino,n/a,2024-12-13_14h34.24.288,dissOSARI,2023.2.3,Win32,60.24096386,,,,,,,,,,,,,,,,,,,,,,,,,,,,,,,,1420.6653,1421.8524,1421.8524,1422.8531,,,,,,0,0.5,,,,,,,,,,,,,,,,,,,,,,,,,,,,,,,,,,,,,,,,,,,,,,,,,,,,,0,79,79,18,1,,,,,,,,,,,,,,,,,,
,,,,,,,,Harbor,2,Female,Hispanic/Latino,n/a,2024-12-13_14h34.24.288,dissOSARI,2023.2.3,Win32,60.24096386,,,,,,,,,,,,,,,,,,,,,,,,,,,,,,,,1424.7897,1426.5397,1426.5398,1427.5363,,,,,,1,0.5,,,,,,,,,,,,,,,,,,,,,,,,,,,,,,,,,,,,,,,,,,,,,,,,,,,1422.8536,1424.788,0,0,0,67,1,,,,,,,,,,,,,,,,,,
,,,,,,,,Harbor,2,Female,Hispanic/Latino,n/a,2024-12-13_14h34.24.288,dissOSARI,2023.2.3,Win32,60.24096386,,,,,,,,,,,,,,,,,,,,,,,,,,,,,,,,1427.5364,1428.7911,1428.7911,1429.7883,,,,,,0,0.5,,,,,,,,,,,,,,,,,,,,,,,,,,,,,,,,,,,,,,,,,,,,,,,,,,,,,0,1,1,7,1,,,,,,,,,,,,,,,,,,
,,,,,,,,Harbor,2,Female,Hispanic/Latino,n/a,2024-12-13_14h34.24.288,dissOSARI,2023.2.3,Win32,60.24096386,,,,,,,,,,,,,,,,,,,,,,,,,,,,,,,,1429.7886,1430.8936,1430.8936,1431.8904,,,,,,0,0.5,,,,,,,,,,,,,,,,,,,,,,,,,,,,,,,,,,,,,,,,,,,,,,,,,,,,,0,2,2,37,1,,,,,,,,,,,,,,,,,,
,,,,,,,,Harbor,2,Female,Hispanic/Latino,n/a,2024-12-13_14h34.24.288,dissOSARI,2023.2.3,Win32,60.24096386,,,,,,,,,,,,,,,,,,,,,,,,,,,,,,,,1431.8909,1432.9955,1432.9956,1433.9919,,,,,,0,0.5,,,,,,,,,,,,,,,,,,,,,,,,,,,,,,,,,,,,,,,,,,,,,,,,,,,,,0,3,3,1,1,,,,,,,,,,,,,,,,,,
,,,,,,,,Harbor,2,Female,Hispanic/Latino,n/a,2024-12-13_14h34.24.288,dissOSARI,2023.2.3,Win32,60.24096386,,,,,,,,,,,,,,,,,,,,,,,,,,,,,,,,1433.9921,1435.0961,1435.0962,1436.0936,,,,,,0,0.5,,,,,,,,,,,,,,,,,,,,,,,,,,,,,,,,,,,,,,,,,,,,,,,,,,,,,0,4,4,47,1,,,,,,,,,,,,,,,,,,
,,,,,,,,Harbor,2,Female,Hispanic/Latino,n/a,2024-12-13_14h34.24.288,dissOSARI,2023.2.3,Win32,60.24096386,,,,,,,,,,,,,,,,,,,,,,,,,,,,,,,,1436.0938,1437.4484,1437.4484,1438.4453,,,,,,1,0.5,,,,,,,,,,,,,,,,,,,,,,,,,,,,,,,,,,,,,,,,,,,,,,,,,,,,,0,5,5,75,1,,,,,,,,,,,,,,,,,,
,,,,,,,,Harbor,2,Female,Hispanic/Latino,n/a,2024-12-13_14h34.24.288,dissOSARI,2023.2.3,Win32,60.24096386,,,,,,,,,,,,,,,,,,,,,,,,,,,,,,,,1438.4454,1439.6504,1439.6504,1440.6473,,,,,,0,0.5,,,,,,,,,,,,,,,,,,,,,,,,,,,,,,,,,,,,,,,,,,,,,,,,,,,,,0,6,6,31,1,,,,,,,,,,,,,,,,,,
,,,,,,,,Harbor,2,Female,Hispanic/Latino,n/a,2024-12-13_14h34.24.288,dissOSARI,2023.2.3,Win32,60.24096386,,,,,,,,,,,,,,,,,,,,,,,,,,,,,,,,1440.6478,1441.8525,1441.8525,1442.8492,,,,,,0,0.5,,,,,,,,,,,,,,,,,,,,,,,,,,,,,,,,,,,,,,,,,,,,,,,,,,,,,0,7,7,12,1,,,,,,,,,,,,,,,,,,
,,,,,,,,Harbor,2,Female,Hispanic/Latino,n/a,2024-12-13_14h34.24.288,dissOSARI,2023.2.3,Win32,60.24096386,,,,,,,,,,,,,,,,,,,,,,,,,,,,,,,,1442.8495,1444.0038,1444.0038,1445.0042,,,,,,0,0.5,,,,,,,,,,,,,,,,,,,,,,,,,,,,,,,,,,,,,,,,,,,,,,,,,,,,,0,8,8,54,1,,,,,,,,,,,,,,,,,,
,,,,,,,,Harbor,2,Female,Hispanic/Latino,n/a,2024-12-13_14h34.24.288,dissOSARI,2023.2.3,Win32,60.24096386,,,,,,,,,,,,,,,,,,,,,,,,,,,,,,,,1445.0045,1446.0895,1446.0895,1447.0894,,,,,,0,0.5,,,,,,,,,,,,,,,,,,,,,,,,,,,,,,,,,,,,,,,,,,,,,,,,,,,,,0,9,9,10,1,,,,,,,,,,,,,,,,,,
,,,,,,,,Harbor,2,Female,Hispanic/Latino,n/a,2024-12-13_14h34.24.288,dissOSARI,2023.2.3,Win32,60.24096386,,,,,,,,,,,,,,,,,,,,,,,,,,,,,,,,1447.0896,1448.4578,1448.4578,1449.4547,,,,,,1,0.5,,,,,,,,,,,,,,,,,,,,,,,,,,,,,,,,,,,,,,,,,,,,,,,,,,,,,0,10,10,69,1,,,,,,,,,,,,,,,,,,
,,,,,,,,Harbor,2,Female,Hispanic/Latino,n/a,2024-12-13_14h34.24.288,dissOSARI,2023.2.3,Win32,60.24096386,,,,,,,,,,,,,,,,,,,,,,,,,,,,,,,,1449.4549,1450.6602,1450.6602,1451.6567,,,,,,0,0.5,,,,,,,,,,,,,,,,,,,,,,,,,,,,,,,,,,,,,,,,,,,,,,,,,,,,,0,11,11,21,1,,,,,,,,,,,,,,,,,,
,,,,,,,,Harbor,2,Female,Hispanic/Latino,n/a,2024-12-13_14h34.24.288,dissOSARI,2023.2.3,Win32,60.24096386,,,,,,,,,,,,,,,,,,,,,,,,,,,,,,,,1451.6573,1452.9953,1452.9953,1453.9921,,,,,,1,0.5,,,,,,,,,,,,,,,,,,,,,,,,,,,,,,,,,,,,,,,,,,,,,,,,,,,,,0,12,12,77,1,,,,,,,,,,,,,,,,,,
,,,,,,,,Harbor,2,Female,Hispanic/Latino,n/a,2024-12-13_14h34.24.288,dissOSARI,2023.2.3,Win32,60.24096386,,,,,,,,,,,,,,,,,,,,,,,,,,,,,,,,1453.9929,1455.4299,1455.4299,1456.4272,,,,,,0,0.5,,,,,,,,,,,,,,,,,,,,,,,,,,,,,,,,,,,,,,,,,,,,,,,,,,,,,0,13,13,28,1,,,,,,,,,,,,,,,,,,
,,,,,,,,Harbor,2,Female,Hispanic/Latino,n/a,2024-12-13_14h34.24.288,dissOSARI,2023.2.3,Win32,60.24096386,,,,,,,,,,,,,,,,,,,,,,,,,,,,,,,,1456.4277,1457.8825,1457.8826,1458.8792,,,,,,0,0.5,,,,,,,,,,,,,,,,,,,,,,,,,,,,,,,,,,,,,,,,,,,,,,,,,,,,,0,14,14,35,1,,,,,,,,,,,,,,,,,,
,,,,,,,,Harbor,2,Female,Hispanic/Latino,n/a,2024-12-13_14h34.24.288,dissOSARI,2023.2.3,Win32,60.24096386,,,,,,,,,,,,,,,,,,,,,,,,,,,,,,,,1458.8794,1460.2006,1460.2006,1461.2,,,,,,0,0.5,,,,,,,,,,,,,,,,,,,,,,,,,,,,,,,,,,,,,,,,,,,,,,,,,,,,,0,15,15,8,1,,,,,,,,,,,,,,,,,,
,,,,,,,,Harbor,2,Female,Hispanic/Latino,n/a,2024-12-13_14h34.24.288,dissOSARI,2023.2.3,Win32,60.24096386,,,,,,,,,,,,,,,,,,,,,,,,,,,,,,,,1461.2003,1462.5037,1462.5037,1463.5,,,,,,0,0.5,,,,,,,,,,,,,,,,,,,,,,,,,,,,,,,,,,,,,,,,,,,,,,,,,,,,,0,16,16,17,1,,,,,,,,,,,,,,,,,,
,,,,,,,,Harbor,2,Female,Hispanic/Latino,n/a,2024-12-13_14h34.24.288,dissOSARI,2023.2.3,Win32,60.24096386,,,,,,,,,,,,,,,,,,,,,,,,,,,,,,,,1463.5004,1464.8713,1464.8713,1465.8684,,,,,,0,0.5,,,,,,,,,,,,,,,,,,,,,,,,,,,,,,,,,,,,,,,,,,,,,,,,,,,,,0,17,17,52,1,,,,,,,,,,,,,,,,,,
,,,,,,,,Harbor,2,Female,Hispanic/Latino,n/a,2024-12-13_14h34.24.288,dissOSARI,2023.2.3,Win32,60.24096386,,,,,,,,,,,,,,,,,,,,,,,,,,,,,,,,1465.8689,1467.3066,1467.3066,1468.3033,,,,,,0,0.5,,,,,,,,,,,,,,,,,,,,,,,,,,,,,,,,,,,,,,,,,,,,,,,,,,,,,0,18,18,18,1,,,,,,,,,,,,,,,,,,
,,,,,,,,Harbor,2,Female,Hispanic/Latino,n/a,2024-12-13_14h34.24.288,dissOSARI,2023.2.3,Win32,60.24096386,,,,,,,,,,,,,,,,,,,,,,,,,,,,,,,,1468.3034,1469.4413,1469.4413,1470.439,,,,,,0,0.5,,,,,,,,,,,,,,,,,,,,,,,,,,,,,,,,,,,,,,,,,,,,,,,,,,,,,0,19,19,51,1,,,,,,,,,,,,,,,,,,
,,,,,,,,Harbor,2,Female,Hispanic/Latino,n/a,2024-12-13_14h34.24.288,dissOSARI,2023.2.3,Win32,60.24096386,,,,,,,,,,,,,,,,,,,,,,,,,,,,,,,,1470.4396,1471.6937,1471.6937,1472.6906,,,,,,0,0.5,,,,,,,,,,,,,,,,,,,,,,,,,,,,,,,,,,,,,,,,,,,,,,,,,,,,,0,20,20,25,1,,,,,,,,,,,,,,,,,,
,,,,,,,,Harbor,2,Female,Hispanic/Latino,n/a,2024-12-13_14h34.24.288,dissOSARI,2023.2.3,Win32,60.24096386,,,,,,,,,,,,,,,,,,,,,,,,,,,,,,,,1472.6911,1473.8623,1473.8623,1474.8625,,,,,,0,0.5,,,,,,,,,,,,,,,,,,,,,,,,,,,,,,,,,,,,,,,,,,,,,,,,,,,,,0,21,21,20,1,,,,,,,,,,,,,,,,,,
,,,,,,,,Harbor,2,Female,Hispanic/Latino,n/a,2024-12-13_14h34.24.288,dissOSARI,2023.2.3,Win32,60.24096386,,,,,,,,,,,,,,,,,,,,,,,,,,,,,,,,1474.8628,1476.0472,1476.0472,1477.0441,,,,,,0,0.5,,,,,,,,,,,,,,,,,,,,,,,,,,,,,,,,,,,,,,,,,,,,,,,,,,,,,0,22,22,55,1,,,,,,,,,,,,,,,,,,
,,,,,,,,Harbor,2,Female,Hispanic/Latino,n/a,2024-12-13_14h34.24.288,dissOSARI,2023.2.3,Win32,60.24096386,,,,,,,,,,,,,,,,,,,,,,,,,,,,,,,,1477.0444,1478.1321,1478.1321,1479.1324,,,,,,0,0.5,,,,,,,,,,,,,,,,,,,,,,,,,,,,,,,,,,,,,,,,,,,,,,,,,,,,,0,23,23,3,1,,,,,,,,,,,,,,,,,,
,,,,,,,,Harbor,2,Female,Hispanic/Latino,n/a,2024-12-13_14h34.24.288,dissOSARI,2023.2.3,Win32,60.24096386,,,,,,,,,,,,,,,,,,,,,,,,,,,,,,,,1479.1327,1480.3841,1480.3841,1481.3811,,,,,,0,0.5,,,,,,,,,,,,,,,,,,,,,,,,,,,,,,,,,,,,,,,,,,,,,,,,,,,,,0,24,24,42,1,,,,,,,,,,,,,,,,,,
,,,,,,,,Harbor,2,Female,Hispanic/Latino,n/a,2024-12-13_14h34.24.288,dissOSARI,2023.2.3,Win32,60.24096386,,,,,,,,,,,,,,,,,,,,,,,,,,,,,,,,1481.3813,1482.4859,1482.4859,1483.4832,,,,,,0,0.5,,,,,,,,,,,,,,,,,,,,,,,,,,,,,,,,,,,,,,,,,,,,,,,,,,,,,0,25,25,39,1,,,,,,,,,,,,,,,,,,
,,,,,,,,Harbor,2,Female,Hispanic/Latino,n/a,2024-12-13_14h34.24.288,dissOSARI,2023.2.3,Win32,60.24096386,,,,,,,,,,,,,,,,,,,,,,,,,,,,,,,,1483.4841,1484.5377,1484.5378,1485.5347,,,,,,1,0.5,,,,,,,,,,,,,,,,,,,,,,,,,,,,,,,,,,,,,,,,,,,,,,,,,,,,,0,26,26,66,1,,,,,,,,,,,,,,,,,,
,,,,,,,,Harbor,2,Female,Hispanic/Latino,n/a,2024-12-13_14h34.24.288,dissOSARI,2023.2.3,Win32,60.24096386,,,,,,,,,,,,,,,,,,,,,,,,,,,,,,,,1485.5353,1487.6568,1487.6568,1488.6568,,,,,,0,0.5,,,,,,,,,,,,,,,,,,,,,,,,,,,,,,,,,,,,,,,,,,,,,,,,,,,,,0,27,27,40,1,,,,,,,,,,,,,,,,,,
,,,,,,,,Harbor,2,Female,Hispanic/Latino,n/a,2024-12-13_14h34.24.288,dissOSARI,2023.2.3,Win32,60.24096386,,,,,,,,,,,,,,,,,,,,,,,,,,,,,,,,1488.6569,1489.8251,1489.8251,1490.826,,,,,,0,0.5,,,,,,,,,,,,,,,,,,,,,,,,,,,,,,,,,,,,,,,,,,,,,,,,,,,,,0,28,28,24,1,,,,,,,,,,,,,,,,,,
,,,,,,,,Harbor,2,Female,Hispanic/Latino,n/a,2024-12-13_14h34.24.288,dissOSARI,2023.2.3,Win32,60.24096386,,,,,,,,,,,,,,,,,,,,,,,,,,,,,,,,1490.8262,1491.8437,1491.8437,1492.8439,,,,,,0,0.5,,,,,,,,,,,,,,,,,,,,,,,,,,,,,,,,,,,,,,,,,,,,,,,,,,,,,0,29,29,19,1,,,,,,,,,,,,,,,,,,
,,,,,,,,Harbor,2,Female,Hispanic/Latino,n/a,2024-12-13_14h34.24.288,dissOSARI,2023.2.3,Win32,60.24096386,,,,,,,,,,,,,,,,,,,,,,,,,,,,,,,,1492.844,1493.9117,1493.9118,1494.909,,,,,,0,0.5,,,,,,,,,,,,,,,,,,,,,,,,,,,,,,,,,,,,,,,,,,,,,,,,,,,,,0,30,30,13,1,,,,,,,,,,,,,,,,,,
,,,,,,,,Harbor,2,Female,Hispanic/Latino,n/a,2024-12-13_14h34.24.288,dissOSARI,2023.2.3,Win32,60.24096386,,,,,,,,,,,,,,,,,,,,,,,,,,,,,,,,1494.9096,1496.1137,1496.1137,1497.1112,,,,,,0,0.5,,,,,,,,,,,,,,,,,,,,,,,,,,,,,,,,,,,,,,,,,,,,,,,,,,,,,0,31,31,45,1,,,,,,,,,,,,,,,,,,
,,,,,,,,Harbor,2,Female,Hispanic/Latino,n/a,2024-12-13_14h34.24.288,dissOSARI,2023.2.3,Win32,60.24096386,,,,,,,,,,,,,,,,,,,,,,,,,,,,,,,,1497.1119,1498.2492,1498.2492,1499.2487,,,,,,0,0.5,,,,,,,,,,,,,,,,,,,,,,,,,,,,,,,,,,,,,,,,,,,,,,,,,,,,,0,32,32,0,1,,,,,,,,,,,,,,,,,,
,,,,,,,,Harbor,2,Female,Hispanic/Latino,n/a,2024-12-13_14h34.24.288,dissOSARI,2023.2.3,Win32,60.24096386,,,,,,,,,,,,,,,,,,,,,,,,,,,,,,,,1499.2489,1500.5005,1500.5005,1501.4979,,,,,,0,0.5,,,,,,,,,,,,,,,,,,,,,,,,,,,,,,,,,,,,,,,,,,,,,,,,,,,,,0,33,33,59,1,,,,,,,,,,,,,,,,,,
,,,,,,,,Harbor,2,Female,Hispanic/Latino,n/a,2024-12-13_14h34.24.288,dissOSARI,2023.2.3,Win32,60.24096386,,,,,,,,,,,,,,,,,,,,,,,,,,,,,,,,1501.4987,1502.6363,1502.6363,1503.6363,,,,,,1,0.5,,,,,,,,,,,,,,,,,,,,,,,,,,,,,,,,,,,,,,,,,,,,,,,,,,,,,0,34,34,73,1,,,,,,,,,,,,,,,,,,
,,,,,,,,Harbor,2,Female,Hispanic/Latino,n/a,2024-12-13_14h34.24.288,dissOSARI,2023.2.3,Win32,60.24096386,,,,,,,,,,,,,,,,,,,,,,,,,,,,,,,,1503.6366,1505.0043,1505.0044,1506.0012,,,,,,0,0.5,,,,,,,,,,,,,,,,,,,,,,,,,,,,,,,,,,,,,,,,,,,,,,,,,,,,,0,35,35,26,1,,,,,,,,,,,,,,,,,,
,,,,,,,,Harbor,2,Female,Hispanic/Latino,n/a,2024-12-13_14h34.24.288,dissOSARI,2023.2.3,Win32,60.24096386,,,,,,,,,,,,,,,,,,,,,,,,,,,,,,,,1506.0015,1507.19,1507.19,1508.1864,,,,,,0,0.5,,,,,,,,,,,,,,,,,,,,,,,,,,,,,,,,,,,,,,,,,,,,,,,,,,,,,0,36,36,53,1,,,,,,,,,,,,,,,,,,
,,,,,,,,Harbor,2,Female,Hispanic/Latino,n/a,2024-12-13_14h34.24.288,dissOSARI,2023.2.3,Win32,60.24096386,,,,,,,,,,,,,,,,,,,,,,,,,,,,,,,,1508.1866,1509.3745,1509.3745,1510.3717,,,,,,0,0.5,,,,,,,,,,,,,,,,,,,,,,,,,,,,,,,,,,,,,,,,,,,,,,,,,,,,,0,37,37,22,1,,,,,,,,,,,,,,,,,,
,,,,,,,,Harbor,2,Female,Hispanic/Latino,n/a,2024-12-13_14h34.24.288,dissOSARI,2023.2.3,Win32,60.24096386,,,,,,,,,,,,,,,,,,,,,,,,,,,,,,,,1510.372,1511.5771,1511.5771,1512.5735,,,,,,0,0.5,,,,,,,,,,,,,,,,,,,,,,,,,,,,,,,,,,,,,,,,,,,,,,,,,,,,,0,38,38,11,1,,,,,,,,,,,,,,,,,,
,,,,,,,,Harbor,2,Female,Hispanic/Latino,n/a,2024-12-13_14h34.24.288,dissOSARI,2023.2.3,Win32,60.24096386,,,,,,,,,,,,,,,,,,,,,,,,,,,,,,,,1512.5737,1513.6955,1513.6956,1514.6957,,,,,,0,0.5,,,,,,,,,,,,,,,,,,,,,,,,,,,,,,,,,,,,,,,,,,,,,,,,,,,,,0,39,39,34,1,,,,,,,,,,,,,,,,,,
,,,,,,,,Harbor,2,Female,Hispanic/Latino,n/a,2024-12-13_14h34.24.288,dissOSARI,2023.2.3,Win32,60.24096386,,,,,,,,,,,,,,,,,,,,,,,,,,,,,,,,1514.6959,1515.9806,1515.9806,1516.9775,,,,,,1,0.5,,,,,,,,,,,,,,,,,,,,,,,,,,,,,,,,,,,,,,,,,,,,,,,,,,,,,0,40,40,60,1,,,,,,,,,,,,,,,,,,
,,,,,,,,Harbor,2,Female,Hispanic/Latino,n/a,2024-12-13_14h34.24.288,dissOSARI,2023.2.3,Win32,60.24096386,,,,,,,,,,,,,,,,,,,,,,,,,,,,,,,,1516.9781,1518.1658,1518.1658,1519.1622,,,,,,0,0.5,,,,,,,,,,,,,,,,,,,,,,,,,,,,,,,,,,,,,,,,,,,,,,,,,,,,,0,41,41,58,1,,,,,,,,,,,,,,,,,,
,,,,,,,,Harbor,2,Female,Hispanic/Latino,n/a,2024-12-13_14h34.24.288,dissOSARI,2023.2.3,Win32,60.24096386,,,,,,,,,,,,,,,,,,,,,,,,,,,,,,,,1519.1625,1520.1001,1520.1001,1521.0975,,,,,,0,0.5,,,,,,,,,,,,,,,,,,,,,,,,,,,,,,,,,,,,,,,,,,,,,,,,,,,,,0,42,42,6,1,,,,,,,,,,,,,,,,,,
,,,,,,,,Harbor,2,Female,Hispanic/Latino,n/a,2024-12-13_14h34.24.288,dissOSARI,2023.2.3,Win32,60.24096386,,,,,,,,,,,,,,,,,,,,,,,,,,,,,,,,1521.0983,1522.2854,1522.2854,1523.2824,,,,,,0,0.5,,,,,,,,,,,,,,,,,,,,,,,,,,,,,,,,,,,,,,,,,,,,,,,,,,,,,0,43,43,9,1,,,,,,,,,,,,,,,,,,
,,,,,,,,Harbor,2,Female,Hispanic/Latino,n/a,2024-12-13_14h34.24.288,dissOSARI,2023.2.3,Win32,60.24096386,,,,,,,,,,,,,,,,,,,,,,,,,,,,,,,,1523.2826,1524.5876,1524.5876,1525.5877,,,,,,1,0.5,,,,,,,,,,,,,,,,,,,,,,,,,,,,,,,,,,,,,,,,,,,,,,,,,,,,,0,44,44,74,1,,,,,,,,,,,,,,,,,,
,,,,,,,,Harbor,2,Female,Hispanic/Latino,n/a,2024-12-13_14h34.24.288,dissOSARI,2023.2.3,Win32,60.24096386,,,,,,,,,,,,,,,,,,,,,,,,,,,,,,,,1525.5879,1526.8892,1526.8892,1527.89,,,,,,0,0.5,,,,,,,,,,,,,,,,,,,,,,,,,,,,,,,,,,,,,,,,,,,,,,,,,,,,,0,45,45,23,1,,,,,,,,,,,,,,,,,,
,,,,,,,,Harbor,2,Female,Hispanic/Latino,n/a,2024-12-13_14h34.24.288,dissOSARI,2023.2.3,Win32,60.24096386,,,,,,,,,,,,,,,,,,,,,,,,,,,,,,,,1527.8903,1529.1742,1529.1742,1530.1717,,,,,,1,0.5,,,,,,,,,,,,,,,,,,,,,,,,,,,,,,,,,,,,,,,,,,,,,,,,,,,,,0,46,46,64,1,,,,,,,,,,,,,,,,,,
,,,,,,,,Harbor,2,Female,Hispanic/Latino,n/a,2024-12-13_14h34.24.288,dissOSARI,2023.2.3,Win32,60.24096386,,,,,,,,,,,,,,,,,,,,,,,,,,,,,,,,1530.1722,1531.5776,1531.5777,1532.5735,,,,,,0,0.5,,,,,,,,,,,,,,,,,,,,,,,,,,,,,,,,,,,,,,,,,,,,,,,,,,,,,0,47,47,4,1,,,,,,,,,,,,,,,,,,
,,,,,,,,Harbor,2,Female,Hispanic/Latino,n/a,2024-12-13_14h34.24.288,dissOSARI,2023.2.3,Win32,60.24096386,,,,,,,,,,,,,,,,,,,,,,,,,,,,,,,,1532.5739,1533.7279,1533.728,1534.7252,,,,,,1,0.5,,,,,,,,,,,,,,,,,,,,,,,,,,,,,,,,,,,,,,,,,,,,,,,,,,,,,0,48,48,76,1,,,,,,,,,,,,,,,,,,
,,,,,,,,Harbor,2,Female,Hispanic/Latino,n/a,2024-12-13_14h34.24.288,dissOSARI,2023.2.3,Win32,60.24096386,,,,,,,,,,,,,,,,,,,,,,,,,,,,,,,,1534.7255,1535.8965,1535.8966,1536.894,,,,,,0,0.5,,,,,,,,,,,,,,,,,,,,,,,,,,,,,,,,,,,,,,,,,,,,,,,,,,,,,0,49,49,38,1,,,,,,,,,,,,,,,,,,
,,,,,,,,Harbor,2,Female,Hispanic/Latino,n/a,2024-12-13_14h34.24.288,dissOSARI,2023.2.3,Win32,60.24096386,,,,,,,,,,,,,,,,,,,,,,,,,,,,,,,,1536.8946,1538.3152,1538.3153,1539.313,,,,,,1,0.5,,,,,,,,,,,,,,,,,,,,,,,,,,,,,,,,,,,,,,,,,,,,,,,,,,,,,0,50,50,62,1,,,,,,,,,,,,,,,,,,
,,,,,,,,Harbor,2,Female,Hispanic/Latino,n/a,2024-12-13_14h34.24.288,dissOSARI,2023.2.3,Win32,60.24096386,,,,,,,,,,,,,,,,,,,,,,,,,,,,,,,,1539.3136,1540.8845,1540.8845,1541.881,,,,,,1,0.5,,,,,,,,,,,,,,,,,,,,,,,,,,,,,,,,,,,,,,,,,,,,,,,,,,,,,0,51,51,68,1,,,,,,,,,,,,,,,,,,
,,,,,,,,Harbor,2,Female,Hispanic/Latino,n/a,2024-12-13_14h34.24.288,dissOSARI,2023.2.3,Win32,60.24096386,,,,,,,,,,,,,,,,,,,,,,,,,,,,,,,,1541.8813,1543.087,1543.087,1544.0866,,,,,,0,0.5,,,,,,,,,,,,,,,,,,,,,,,,,,,,,,,,,,,,,,,,,,,,,,,,,,,,,0,52,52,33,1,,,,,,,,,,,,,,,,,,
,,,,,,,,Harbor,2,Female,Hispanic/Latino,n/a,2024-12-13_14h34.24.288,dissOSARI,2023.2.3,Win32,60.24096386,,,,,,,,,,,,,,,,,,,,,,,,,,,,,,,,1544.0869,1545.2041,1545.2041,1546.2045,,,,,,0,0.5,,,,,,,,,,,,,,,,,,,,,,,,,,,,,,,,,,,,,,,,,,,,,,,,,,,,,0,53,53,16,1,,,,,,,,,,,,,,,,,,
,,,,,,,,Harbor,2,Female,Hispanic/Latino,n/a,2024-12-13_14h34.24.288,dissOSARI,2023.2.3,Win32,60.24096386,,,,,,,,,,,,,,,,,,,,,,,,,,,,,,,,1546.2046,1547.7227,1547.7227,1548.7198,,,,,,1,0.5,,,,,,,,,,,,,,,,,,,,,,,,,,,,,,,,,,,,,,,,,,,,,,,,,,,,,0,54,54,78,1,,,,,,,,,,,,,,,,,,
,,,,,,,,Harbor,2,Female,Hispanic/Latino,n/a,2024-12-13_14h34.24.288,dissOSARI,2023.2.3,Win32,60.24096386,,,,,,,,,,,,,,,,,,,,,,,,,,,,,,,,1548.72,1550.1592,1550.1592,1551.1587,,,,,,1,0.5,,,,,,,,,,,,,,,,,,,,,,,,,,,,,,,,,,,,,,,,,,,,,,,,,,,,,0,55,55,63,1,,,,,,,,,,,,,,,,,,
,,,,,,,,Harbor,2,Female,Hispanic/Latino,n/a,2024-12-13_14h34.24.288,dissOSARI,2023.2.3,Win32,60.24096386,,,,,,,,,,,,,,,,,,,,,,,,,,,,,,,,1551.159,1552.2441,1552.2442,1553.244,,,,,,1,0.5,,,,,,,,,,,,,,,,,,,,,,,,,,,,,,,,,,,,,,,,,,,,,,,,,,,,,0,56,56,65,1,,,,,,,,,,,,,,,,,,
,,,,,,,,Harbor,2,Female,Hispanic/Latino,n/a,2024-12-13_14h34.24.288,dissOSARI,2023.2.3,Win32,60.24096386,,,,,,,,,,,,,,,,,,,,,,,,,,,,,,,,1553.2442,1555.8464,1555.8464,1556.8438,,,,,,0,0.5,,,,,,,,,,,,,,,,,,,,,,,,,,,,,,,,,,,,,,,,,,,,,,,,,,,,,0,57,57,44,1,,,,,,,,,,,,,,,,,,
,,,,,,,,Harbor,2,Female,Hispanic/Latino,n/a,2024-12-13_14h34.24.288,dissOSARI,2023.2.3,Win32,60.24096386,,,,,,,,,,,,,,,,,,,,,,,,,,,,,,,,1556.8441,1557.9987,1557.9987,1558.9957,,,,,,1,0.5,,,,,,,,,,,,,,,,,,,,,,,,,,,,,,,,,,,,,,,,,,,,,,,,,,,,,0,58,58,72,1,,,,,,,,,,,,,,,,,,
,,,,,,,,Harbor,2,Female,Hispanic/Latino,n/a,2024-12-13_14h34.24.288,dissOSARI,2023.2.3,Win32,60.24096386,,,,,,,,,,,,,,,,,,,,,,,,,,,,,,,,1558.9963,1573.2788,1573.2789,1574.2783,,,,,,0,0.5,,,,,,,,,,,,,,,,,,,,,,,,,,,,,,,,,,,,,,,,,,,,,,,,,,,,,0,59,59,29,1,,,,,,,,,,,,,,,,,,
,,,,,,,,Harbor,2,Female,Hispanic/Latino,n/a,2024-12-13_14h34.24.288,dissOSARI,2023.2.3,Win32,60.24096386,,,,,,,,,,,,,,,,,,,,,,,,,,,,,,,,1574.2786,1575.5469,1575.5469,1576.5431,,,,,,0,0.5,,,,,,,,,,,,,,,,,,,,,,,,,,,,,,,,,,,,,,,,,,,,,,,,,,,,,0,60,60,49,1,,,,,,,,,,,,,,,,,,
,,,,,,,,Harbor,2,Female,Hispanic/Latino,n/a,2024-12-13_14h34.24.288,dissOSARI,2023.2.3,Win32,60.24096386,,,,,,,,,,,,,,,,,,,,,,,,,,,,,,,,1576.5434,1577.7491,1577.7491,1578.7446,,,,,,0,0.5,,,,,,,,,,,,,,,,,,,,,,,,,,,,,,,,,,,,,,,,,,,,,,,,,,,,,0,61,61,27,1,,,,,,,,,,,,,,,,,,
,,,,,,,,Harbor,2,Female,Hispanic/Latino,n/a,2024-12-13_14h34.24.288,dissOSARI,2023.2.3,Win32,60.24096386,,,,,,,,,,,,,,,,,,,,,,,,,,,,,,,,1578.7448,1580.0501,1580.0501,1581.0473,,,,,,1,0.5,,,,,,,,,,,,,,,,,,,,,,,,,,,,,,,,,,,,,,,,,,,,,,,,,,,,,0,62,62,70,1,,,,,,,,,,,,,,,,,,
,,,,,,,,Harbor,2,Female,Hispanic/Latino,n/a,2024-12-13_14h34.24.288,dissOSARI,2023.2.3,Win32,60.24096386,,,,,,,,,,,,,,,,,,,,,,,,,,,,,,,,1581.0477,1582.335,1582.335,1583.3325,,,,,,0,0.5,,,,,,,,,,,,,,,,,,,,,,,,,,,,,,,,,,,,,,,,,,,,,,,,,,,,,0,63,63,32,1,,,,,,,,,,,,,,,,,,
,,,,,,,,Harbor,2,Female,Hispanic/Latino,n/a,2024-12-13_14h34.24.288,dissOSARI,2023.2.3,Win32,60.24096386,,,,,,,,,,,,,,,,,,,,,,,,,,,,,,,,1583.3332,1584.6548,1584.6548,1585.6508,,,,,,0,0.5,,,,,,,,,,,,,,,,,,,,,,,,,,,,,,,,,,,,,,,,,,,,,,,,,,,,,0,64,64,5,1,,,,,,,,,,,,,,,,,,
,,,,,,,,Harbor,2,Female,Hispanic/Latino,n/a,2024-12-13_14h34.24.288,dissOSARI,2023.2.3,Win32,60.24096386,,,,,,,,,,,,,,,,,,,,,,,,,,,,,,,,1585.6512,1586.7898,1586.7898,1587.7859,,,,,,0,0.5,,,,,,,,,,,,,,,,,,,,,,,,,,,,,,,,,,,,,,,,,,,,,,,,,,,,,0,65,65,48,1,,,,,,,,,,,,,,,,,,
,,,,,,,,Harbor,2,Female,Hispanic/Latino,n/a,2024-12-13_14h34.24.288,dissOSARI,2023.2.3,Win32,60.24096386,,,,,,,,,,,,,,,,,,,,,,,,,,,,,,,,1587.7864,1588.9736,1588.9736,1589.971,,,,,,0,0.5,,,,,,,,,,,,,,,,,,,,,,,,,,,,,,,,,,,,,,,,,,,,,,,,,,,,,0,66,66,57,1,,,,,,,,,,,,,,,,,,
,,,,,,,,Harbor,2,Female,Hispanic/Latino,n/a,2024-12-13_14h34.24.288,dissOSARI,2023.2.3,Win32,60.24096386,,,,,,,,,,,,,,,,,,,,,,,,,,,,,,,,1589.9714,1591.3091,1591.3092,1592.3096,,,,,,1,0.5,,,,,,,,,,,,,,,,,,,,,,,,,,,,,,,,,,,,,,,,,,,,,,,,,,,,,0,67,67,71,1,,,,,,,,,,,,,,,,,,
,,,,,,,,Harbor,2,Female,Hispanic/Latino,n/a,2024-12-13_14h34.24.288,dissOSARI,2023.2.3,Win32,60.24096386,,,,,,,,,,,,,,,,,,,,,,,,,,,,,,,,1592.31,1593.628,1593.628,1594.6251,,,,,,0,0.5,,,,,,,,,,,,,,,,,,,,,,,,,,,,,,,,,,,,,,,,,,,,,,,,,,,,,0,68,68,30,1,,,,,,,,,,,,,,,,,,
,,,,,,,,Harbor,2,Female,Hispanic/Latino,n/a,2024-12-13_14h34.24.288,dissOSARI,2023.2.3,Win32,60.24096386,,,,,,,,,,,,,,,,,,,,,,,,,,,,,,,,1594.6254,1595.4794,1595.4794,1596.4762,,,,,,0,0.5,,,,,,,,,,,,,,,,,,,,,,,,,,,,,,,,,,,,,,,,,,,,,,,,,,,,,0,69,69,56,1,,,,,,,,,,,,,,,,,,
,,,,,,,,Harbor,2,Female,Hispanic/Latino,n/a,2024-12-13_14h34.24.288,dissOSARI,2023.2.3,Win32,60.24096386,,,,,,,,,,,,,,,,,,,,,,,,,,,,,,,,1596.4763,1597.6316,1597.6317,1598.6279,,,,,,0,0.5,,,,,,,,,,,,,,,,,,,,,,,,,,,,,,,,,,,,,,,,,,,,,,,,,,,,,0,70,70,46,1,,,,,,,,,,,,,,,,,,
,,,,,,,,Harbor,2,Female,Hispanic/Latino,n/a,2024-12-13_14h34.24.288,dissOSARI,2023.2.3,Win32,60.24096386,,,,,,,,,,,,,,,,,,,,,,,,,,,,,,,,1598.6281,1599.8334,1599.8334,1600.8337,,,,,,0,0.5,,,,,,,,,,,,,,,,,,,,,,,,,,,,,,,,,,,,,,,,,,,,,,,,,,,,,0,71,71,14,1,,,,,,,,,,,,,,,,,,
,,,,,,,,Harbor,2,Female,Hispanic/Latino,n/a,2024-12-13_14h34.24.288,dissOSARI,2023.2.3,Win32,60.24096386,,,,,,,,,,,,,,,,,,,,,,,,,,,,,,,,1600.8339,1601.8851,1601.8851,1602.8818,,,,,,0,0.5,,,,,,,,,,,,,,,,,,,,,,,,,,,,,,,,,,,,,,,,,,,,,,,,,,,,,0,72,72,36,1,,,,,,,,,,,,,,,,,,
,,,,,,,,Harbor,2,Female,Hispanic/Latino,n/a,2024-12-13_14h34.24.288,dissOSARI,2023.2.3,Win32,60.24096386,,,,,,,,,,,,,,,,,,,,,,,,,,,,,,,,1602.8823,1604.0197,1604.0197,1605.0198,,,,,,0,0.5,,,,,,,,,,,,,,,,,,,,,,,,,,,,,,,,,,,,,,,,,,,,,,,,,,,,,0,73,73,50,1,,,,,,,,,,,,,,,,,,
,,,,,,,,Harbor,2,Female,Hispanic/Latino,n/a,2024-12-13_14h34.24.288,dissOSARI,2023.2.3,Win32,60.24096386,,,,,,,,,,,,,,,,,,,,,,,,,,,,,,,,1605.0199,1606.0718,1606.0718,1607.0687,,,,,,0,0.5,,,,,,,,,,,,,,,,,,,,,,,,,,,,,,,,,,,,,,,,,,,,,,,,,,,,,0,74,74,41,1,,,,,,,,,,,,,,,,,,
,,,,,,,,Harbor,2,Female,Hispanic/Latino,n/a,2024-12-13_14h34.24.288,dissOSARI,2023.2.3,Win32,60.24096386,,,,,,,,,,,,,,,,,,,,,,,,,,,,,,,,1607.0689,1624.0534,1624.0535,1625.0534,,,,,,1,0.5,,,,,,,,,,,,,,,,,,,,,,,,,,,,,,,,,,,,,,,,,,,,,,,,,,,,,0,75,75,61,1,,,,,,,,,,,,,,,,,,
,,,,,,,,Harbor,2,Female,Hispanic/Latino,n/a,2024-12-13_14h34.24.288,dissOSARI,2023.2.3,Win32,60.24096386,,,,,,,,,,,,,,,,,,,,,,,,,,,,,,,,1625.0536,1626.4048,1626.4048,1627.4051,,,,,,0,0.5,,,,,,,,,,,,,,,,,,,,,,,,,,,,,,,,,,,,,,,,,,,,,,,,,,,,,0,76,76,2,1,,,,,,,,,,,,,,,,,,
,,,,,,,,Harbor,2,Female,Hispanic/Latino,n/a,2024-12-13_14h34.24.288,dissOSARI,2023.2.3,Win32,60.24096386,,,,,,,,,,,,,,,,,,,,,,,,,,,,,,,,1627.4052,1628.5737,1628.5737,1629.5704,,,,,,0,0.5,,,,,,,,,,,,,,,,,,,,,,,,,,,,,,,,,,,,,,,,,,,,,,,,,,,,,0,77,77,43,1,,,,,,,,,,,,,,,,,,
,,,,,,,,Harbor,2,Female,Hispanic/Latino,n/a,2024-12-13_14h34.24.288,dissOSARI,2023.2.3,Win32,60.24096386,,,,,,,,,,,,,,,,,,,,,,,,,,,,,,,,1629.5705,1630.6598,1630.6598,1631.6591,,,,,,0,0.5,,,,,,,,,,,,,,,,,,,,,,,,,,,,,,,,,,,,,,,,,,,,,,,,,,,,,0,78,78,15,1,,,,,,,,,,,,,,,,,,
,,,,,,,,Harbor,2,Female,Hispanic/Latino,n/a,2024-12-13_14h34.24.288,dissOSARI,2023.2.3,Win32,60.24096386,,,,,,,,,,,,,,,,,,,,,,,,,,,,,,,,1631.6594,1633.0275,1633.0275,1634.0265,,,,,,1,0.5,,,,,,,,,,,,,,,,,,,,,,,,,,,,,,,,,,,,,,,,,,,,,,,,,,,,,0,79,79,79,1,,,,,,,,,,,,,,,,,,
,,,,,,,,Harbor,2,Female,Hispanic/Latino,n/a,2024-12-13_14h34.24.288,dissOSARI,2023.2.3,Win32,60.24096386,,,,,,,,,,,,,,,,,,,,,,,,,,,,,,,,1635.5478,1635.6798,1635.6798,1636.6763,,,,,,0,0.5,,,,,,,,,,,,,,,,,,,,,,,,,,,,,,,,,,,,,,,,,,,,,,,,,,,1634.0269,1635.5457,0,0,0,13,1,,,,,,,,,,,,,,,,,,
,,,,,,,,Harbor,2,Female,Hispanic/Latino,n/a,2024-12-13_14h34.24.288,dissOSARI,2023.2.3,Win32,60.24096386,,,,,,,,,,,,,,,,,,,,,,,,,,,,,,,,1636.6766,1638.2317,1638.2317,1639.2288,,,,,,0,0.5,,,,,,,,,,,,,,,,,,,,,,,,,,,,,,,,,,,,,,,,,,,,,,,,,,,,,0,1,1,14,1,,,,,,,,,,,,,,,,,,
,,,,,,,,Harbor,2,Female,Hispanic/Latino,n/a,2024-12-13_14h34.24.288,dissOSARI,2023.2.3,Win32,60.24096386,,,,,,,,,,,,,,,,,,,,,,,,,,,,,,,,1639.2297,1640.4166,1640.4166,1641.4139,,,,,,0,0.5,,,,,,,,,,,,,,,,,,,,,,,,,,,,,,,,,,,,,,,,,,,,,,,,,,,,,0,2,2,4,1,,,,,,,,,,,,,,,,,,
,,,,,,,,Harbor,2,Female,Hispanic/Latino,n/a,2024-12-13_14h34.24.288,dissOSARI,2023.2.3,Win32,60.24096386,,,,,,,,,,,,,,,,,,,,,,,,,,,,,,,,1641.4144,1642.8855,1642.8855,1643.8825,,,,,,1,0.5,,,,,,,,,,,,,,,,,,,,,,,,,,,,,,,,,,,,,,,,,,,,,,,,,,,,,0,3,3,66,1,,,,,,,,,,,,,,,,,,
,,,,,,,,Harbor,2,Female,Hispanic/Latino,n/a,2024-12-13_14h34.24.288,dissOSARI,2023.2.3,Win32,60.24096386,,,,,,,,,,,,,,,,,,,,,,,,,,,,,,,,1643.8827,1645.4876,1645.4876,1646.4874,,,,,,1,0.5,,,,,,,,,,,,,,,,,,,,,,,,,,,,,,,,,,,,,,,,,,,,,,,,,,,,,0,4,4,70,1,,,,,,,,,,,,,,,,,,
,,,,,,,,Harbor,2,Female,Hispanic/Latino,n/a,2024-12-13_14h34.24.288,dissOSARI,2023.2.3,Win32,60.24096386,,,,,,,,,,,,,,,,,,,,,,,,,,,,,,,,1646.4876,1647.8565,1647.8565,1648.8563,,,,,,0,0.5,,,,,,,,,,,,,,,,,,,,,,,,,,,,,,,,,,,,,,,,,,,,,,,,,,,,,0,5,5,46,1,,,,,,,,,,,,,,,,,,
,,,,,,,,Harbor,2,Female,Hispanic/Latino,n/a,2024-12-13_14h34.24.288,dissOSARI,2023.2.3,Win32,60.24096386,,,,,,,,,,,,,,,,,,,,,,,,,,,,,,,,1648.8565,1650.4084,1650.4084,1651.4056,,,,,,0,0.5,,,,,,,,,,,,,,,,,,,,,,,,,,,,,,,,,,,,,,,,,,,,,,,,,,,,,0,6,6,32,1,,,,,,,,,,,,,,,,,,
,,,,,,,,Harbor,2,Female,Hispanic/Latino,n/a,2024-12-13_14h34.24.288,dissOSARI,2023.2.3,Win32,60.24096386,,,,,,,,,,,,,,,,,,,,,,,,,,,,,,,,1651.4063,1652.7438,1652.7438,1653.7403,,,,,,0,0.5,,,,,,,,,,,,,,,,,,,,,,,,,,,,,,,,,,,,,,,,,,,,,,,,,,,,,0,7,7,53,1,,,,,,,,,,,,,,,,,,
,,,,,,,,Harbor,2,Female,Hispanic/Latino,n/a,2024-12-13_14h34.24.288,dissOSARI,2023.2.3,Win32,60.24096386,,,,,,,,,,,,,,,,,,,,,,,,,,,,,,,,1653.7406,1654.9125,1654.9125,1655.9119,,,,,,0,0.5,,,,,,,,,,,,,,,,,,,,,,,,,,,,,,,,,,,,,,,,,,,,,,,,,,,,,0,8,8,26,1,,,,,,,,,,,,,,,,,,
,,,,,,,,Harbor,2,Female,Hispanic/Latino,n/a,2024-12-13_14h34.24.288,dissOSARI,2023.2.3,Win32,60.24096386,,,,,,,,,,,,,,,,,,,,,,,,,,,,,,,,1655.912,1657.1137,1657.1137,1658.1146,,,,,,0,0.5,,,,,,,,,,,,,,,,,,,,,,,,,,,,,,,,,,,,,,,,,,,,,,,,,,,,,0,9,9,20,1,,,,,,,,,,,,,,,,,,
,,,,,,,,Harbor,2,Female,Hispanic/Latino,n/a,2024-12-13_14h34.24.288,dissOSARI,2023.2.3,Win32,60.24096386,,,,,,,,,,,,,,,,,,,,,,,,,,,,,,,,1658.1148,1659.5155,1659.5155,1660.5128,,,,,,1,0.5,,,,,,,,,,,,,,,,,,,,,,,,,,,,,,,,,,,,,,,,,,,,,,,,,,,,,0,10,10,73,1,,,,,,,,,,,,,,,,,,
,,,,,,,,Harbor,2,Female,Hispanic/Latino,n/a,2024-12-13_14h34.24.288,dissOSARI,2023.2.3,Win32,60.24096386,,,,,,,,,,,,,,,,,,,,,,,,,,,,,,,,1660.513,1662.1191,1662.1191,1663.1187,,,,,,0,0.5,,,,,,,,,,,,,,,,,,,,,,,,,,,,,,,,,,,,,,,,,,,,,,,,,,,,,0,11,11,49,1,,,,,,,,,,,,,,,,,,
,,,,,,,,Harbor,2,Female,Hispanic/Latino,n/a,2024-12-13_14h34.24.288,dissOSARI,2023.2.3,Win32,60.24096386,,,,,,,,,,,,,,,,,,,,,,,,,,,,,,,,1663.1189,1664.321,1664.321,1665.3205,,,,,,0,0.5,,,,,,,,,,,,,,,,,,,,,,,,,,,,,,,,,,,,,,,,,,,,,,,,,,,,,0,12,12,52,1,,,,,,,,,,,,,,,,,,
,,,,,,,,Harbor,2,Female,Hispanic/Latino,n/a,2024-12-13_14h34.24.288,dissOSARI,2023.2.3,Win32,60.24096386,,,,,,,,,,,,,,,,,,,,,,,,,,,,,,,,1665.3208,1666.3883,1666.3883,1667.3853,,,,,,1,0.5,,,,,,,,,,,,,,,,,,,,,,,,,,,,,,,,,,,,,,,,,,,,,,,,,,,,,0,13,13,67,1,,,,,,,,,,,,,,,,,,
,,,,,,,,Harbor,2,Female,Hispanic/Latino,n/a,2024-12-13_14h34.24.288,dissOSARI,2023.2.3,Win32,60.24096386,,,,,,,,,,,,,,,,,,,,,,,,,,,,,,,,1667.3857,1668.5899,1668.5899,1669.5904,,,,,,0,0.5,,,,,,,,,,,,,,,,,,,,,,,,,,,,,,,,,,,,,,,,,,,,,,,,,,,,,0,14,14,18,1,,,,,,,,,,,,,,,,,,
,,,,,,,,Harbor,2,Female,Hispanic/Latino,n/a,2024-12-13_14h34.24.288,dissOSARI,2023.2.3,Win32,60.24096386,,,,,,,,,,,,,,,,,,,,,,,,,,,,,,,,1669.5907,1671.6265,1671.6266,1672.6268,,,,,,0,0.5,,,,,,,,,,,,,,,,,,,,,,,,,,,,,,,,,,,,,,,,,,,,,,,,,,,,,0,15,15,54,1,,,,,,,,,,,,,,,,,,
,,,,,,,,Harbor,2,Female,Hispanic/Latino,n/a,2024-12-13_14h34.24.288,dissOSARI,2023.2.3,Win32,60.24096386,,,,,,,,,,,,,,,,,,,,,,,,,,,,,,,,1672.6271,1673.9445,1673.9445,1674.9414,,,,,,0,0.5,,,,,,,,,,,,,,,,,,,,,,,,,,,,,,,,,,,,,,,,,,,,,,,,,,,,,0,16,16,2,1,,,,,,,,,,,,,,,,,,
,,,,,,,,Harbor,2,Female,Hispanic/Latino,n/a,2024-12-13_14h34.24.288,dissOSARI,2023.2.3,Win32,60.24096386,,,,,,,,,,,,,,,,,,,,,,,,,,,,,,,,1674.9417,1676.3635,1676.3635,1677.3601,,,,,,1,0.5,,,,,,,,,,,,,,,,,,,,,,,,,,,,,,,,,,,,,,,,,,,,,,,,,,,,,0,17,17,71,1,,,,,,,,,,,,,,,,,,
,,,,,,,,Harbor,2,Female,Hispanic/Latino,n/a,2024-12-13_14h34.24.288,dissOSARI,2023.2.3,Win32,60.24096386,,,,,,,,,,,,,,,,,,,,,,,,,,,,,,,,1677.3604,1678.8485,1678.8485,1679.8491,,,,,,0,0.5,,,,,,,,,,,,,,,,,,,,,,,,,,,,,,,,,,,,,,,,,,,,,,,,,,,,,0,18,18,21,1,,,,,,,,,,,,,,,,,,
,,,,,,,,Harbor,2,Female,Hispanic/Latino,n/a,2024-12-13_14h34.24.288,dissOSARI,2023.2.3,Win32,60.24096386,,,,,,,,,,,,,,,,,,,,,,,,,,,,,,,,1679.8493,1681.1504,1681.1505,1682.1474,,,,,,0,0.5,,,,,,,,,,,,,,,,,,,,,,,,,,,,,,,,,,,,,,,,,,,,,,,,,,,,,0,19,19,3,1,,,,,,,,,,,,,,,,,,
,,,,,,,,Harbor,2,Female,Hispanic/Latino,n/a,2024-12-13_14h34.24.288,dissOSARI,2023.2.3,Win32,60.24096386,,,,,,,,,,,,,,,,,,,,,,,,,,,,,,,,1682.1477,1683.7691,1683.7692,1684.7664,,,,,,1,0.5,,,,,,,,,,,,,,,,,,,,,,,,,,,,,,,,,,,,,,,,,,,,,,,,,,,,,0,20,20,61,1,,,,,,,,,,,,,,,,,,
,,,,,,,,Harbor,2,Female,Hispanic/Latino,n/a,2024-12-13_14h34.24.288,dissOSARI,2023.2.3,Win32,60.24096386,,,,,,,,,,,,,,,,,,,,,,,,,,,,,,,,1684.7666,1685.9709,1685.9709,1686.9718,,,,,,0,0.5,,,,,,,,,,,,,,,,,,,,,,,,,,,,,,,,,,,,,,,,,,,,,,,,,,,,,0,21,21,35,1,,,,,,,,,,,,,,,,,,
,,,,,,,,Harbor,2,Female,Hispanic/Latino,n/a,2024-12-13_14h34.24.288,dissOSARI,2023.2.3,Win32,60.24096386,,,,,,,,,,,,,,,,,,,,,,,,,,,,,,,,1686.9721,1688.2394,1688.2394,1689.2364,,,,,,0,0.5,,,,,,,,,,,,,,,,,,,,,,,,,,,,,,,,,,,,,,,,,,,,,,,,,,,,,0,22,22,41,1,,,,,,,,,,,,,,,,,,
,,,,,,,,Harbor,2,Female,Hispanic/Latino,n/a,2024-12-13_14h34.24.288,dissOSARI,2023.2.3,Win32,60.24096386,,,,,,,,,,,,,,,,,,,,,,,,,,,,,,,,1689.2366,1690.3752,1690.3752,1691.3718,,,,,,0,0.5,,,,,,,,,,,,,,,,,,,,,,,,,,,,,,,,,,,,,,,,,,,,,,,,,,,,,0,23,23,58,1,,,,,,,,,,,,,,,,,,
,,,,,,,,Harbor,2,Female,Hispanic/Latino,n/a,2024-12-13_14h34.24.288,dissOSARI,2023.2.3,Win32,60.24096386,,,,,,,,,,,,,,,,,,,,,,,,,,,,,,,,1691.372,1692.5098,1692.5099,1693.507,,,,,,0,0.5,,,,,,,,,,,,,,,,,,,,,,,,,,,,,,,,,,,,,,,,,,,,,,,,,,,,,0,24,24,23,1,,,,,,,,,,,,,,,,,,
,,,,,,,,Harbor,2,Female,Hispanic/Latino,n/a,2024-12-13_14h34.24.288,dissOSARI,2023.2.3,Win32,60.24096386,,,,,,,,,,,,,,,,,,,,,,,,,,,,,,,,1693.5073,1694.695,1694.695,1695.6922,,,,,,0,0.5,,,,,,,,,,,,,,,,,,,,,,,,,,,,,,,,,,,,,,,,,,,,,,,,,,,,,0,25,25,57,1,,,,,,,,,,,,,,,,,,
,,,,,,,,Harbor,2,Female,Hispanic/Latino,n/a,2024-12-13_14h34.24.288,dissOSARI,2023.2.3,Win32,60.24096386,,,,,,,,,,,,,,,,,,,,,,,,,,,,,,,,1695.6929,1697.2315,1697.2315,1698.2277,,,,,,1,0.5,,,,,,,,,,,,,,,,,,,,,,,,,,,,,,,,,,,,,,,,,,,,,,,,,,,,,0,26,26,69,1,,,,,,,,,,,,,,,,,,
,,,,,,,,Harbor,2,Female,Hispanic/Latino,n/a,2024-12-13_14h34.24.288,dissOSARI,2023.2.3,Win32,60.24096386,,,,,,,,,,,,,,,,,,,,,,,,,,,,,,,,1698.2283,1699.7659,1699.7659,1700.7633,,,,,,1,0.5,,,,,,,,,,,,,,,,,,,,,,,,,,,,,,,,,,,,,,,,,,,,,,,,,,,,,0,27,27,63,1,,,,,,,,,,,,,,,,,,
,,,,,,,,Harbor,2,Female,Hispanic/Latino,n/a,2024-12-13_14h34.24.288,dissOSARI,2023.2.3,Win32,60.24096386,,,,,,,,,,,,,,,,,,,,,,,,,,,,,,,,1700.764,1702.2344,1702.2344,1703.2319,,,,,,0,0.5,,,,,,,,,,,,,,,,,,,,,,,,,,,,,,,,,,,,,,,,,,,,,,,,,,,,,0,28,28,11,1,,,,,,,,,,,,,,,,,,
,,,,,,,,Harbor,2,Female,Hispanic/Latino,n/a,2024-12-13_14h34.24.288,dissOSARI,2023.2.3,Win32,60.24096386,,,,,,,,,,,,,,,,,,,,,,,,,,,,,,,,1703.2326,1704.3695,1704.3695,1705.3695,,,,,,0,0.5,,,,,,,,,,,,,,,,,,,,,,,,,,,,,,,,,,,,,,,,,,,,,,,,,,,,,0,29,29,22,1,,,,,,,,,,,,,,,,,,
,,,,,,,,Harbor,2,Female,Hispanic/Latino,n/a,2024-12-13_14h34.24.288,dissOSARI,2023.2.3,Win32,60.24096386,,,,,,,,,,,,,,,,,,,,,,,,,,,,,,,,1705.3697,1706.5888,1706.5888,1707.5887,,,,,,0,0.5,,,,,,,,,,,,,,,,,,,,,,,,,,,,,,,,,,,,,,,,,,,,,,,,,,,,,0,30,30,59,1,,,,,,,,,,,,,,,,,,
,,,,,,,,Harbor,2,Female,Hispanic/Latino,n/a,2024-12-13_14h34.24.288,dissOSARI,2023.2.3,Win32,60.24096386,,,,,,,,,,,,,,,,,,,,,,,,,,,,,,,,1707.5889,1708.9067,1708.9067,1709.9071,,,,,,1,0.5,,,,,,,,,,,,,,,,,,,,,,,,,,,,,,,,,,,,,,,,,,,,,,,,,,,,,0,31,31,77,1,,,,,,,,,,,,,,,,,,
,,,,,,,,Harbor,2,Female,Hispanic/Latino,n/a,2024-12-13_14h34.24.288,dissOSARI,2023.2.3,Win32,60.24096386,,,,,,,,,,,,,,,,,,,,,,,,,,,,,,,,1709.9072,1711.1763,1711.1763,1712.1726,,,,,,0,0.5,,,,,,,,,,,,,,,,,,,,,,,,,,,,,,,,,,,,,,,,,,,,,,,,,,,,,0,32,32,27,1,,,,,,,,,,,,,,,,,,
,,,,,,,,Harbor,2,Female,Hispanic/Latino,n/a,2024-12-13_14h34.24.288,dissOSARI,2023.2.3,Win32,60.24096386,,,,,,,,,,,,,,,,,,,,,,,,,,,,,,,,1712.1731,1713.327,1713.327,1714.3246,,,,,,0,0.5,,,,,,,,,,,,,,,,,,,,,,,,,,,,,,,,,,,,,,,,,,,,,,,,,,,,,0,33,33,19,1,,,,,,,,,,,,,,,,,,
,,,,,,,,Harbor,2,Female,Hispanic/Latino,n/a,2024-12-13_14h34.24.288,dissOSARI,2023.2.3,Win32,60.24096386,,,,,,,,,,,,,,,,,,,,,,,,,,,,,,,,1714.3252,1715.646,1715.6461,1716.6457,,,,,,0,0.5,,,,,,,,,,,,,,,,,,,,,,,,,,,,,,,,,,,,,,,,,,,,,,,,,,,,,0,34,34,16,1,,,,,,,,,,,,,,,,,,
,,,,,,,,Harbor,2,Female,Hispanic/Latino,n/a,2024-12-13_14h34.24.288,dissOSARI,2023.2.3,Win32,60.24096386,,,,,,,,,,,,,,,,,,,,,,,,,,,,,,,,1716.6459,1717.8987,1717.8987,1718.8942,,,,,,0,0.5,,,,,,,,,,,,,,,,,,,,,,,,,,,,,,,,,,,,,,,,,,,,,,,,,,,,,0,35,35,43,1,,,,,,,,,,,,,,,,,,
,,,,,,,,Harbor,2,Female,Hispanic/Latino,n/a,2024-12-13_14h34.24.288,dissOSARI,2023.2.3,Win32,60.24096386,,,,,,,,,,,,,,,,,,,,,,,,,,,,,,,,1718.8943,1719.9823,1719.9823,1720.9833,,,,,,0,0.5,,,,,,,,,,,,,,,,,,,,,,,,,,,,,,,,,,,,,,,,,,,,,,,,,,,,,0,36,36,31,1,,,,,,,,,,,,,,,,,,
,,,,,,,,Harbor,2,Female,Hispanic/Latino,n/a,2024-12-13_14h34.24.288,dissOSARI,2023.2.3,Win32,60.24096386,,,,,,,,,,,,,,,,,,,,,,,,,,,,,,,,1720.9835,1722.101,1722.101,1723.0977,,,,,,0,0.5,,,,,,,,,,,,,,,,,,,,,,,,,,,,,,,,,,,,,,,,,,,,,,,,,,,,,0,37,37,48,1,,,,,,,,,,,,,,,,,,
,,,,,,,,Harbor,2,Female,Hispanic/Latino,n/a,2024-12-13_14h34.24.288,dissOSARI,2023.2.3,Win32,60.24096386,,,,,,,,,,,,,,,,,,,,,,,,,,,,,,,,1723.098,1724.6195,1724.6195,1725.6198,,,,,,1,0.5,,,,,,,,,,,,,,,,,,,,,,,,,,,,,,,,,,,,,,,,,,,,,,,,,,,,,0,38,38,79,1,,,,,,,,,,,,,,,,,,
,,,,,,,,Harbor,2,Female,Hispanic/Latino,n/a,2024-12-13_14h34.24.288,dissOSARI,2023.2.3,Win32,60.24096386,,,,,,,,,,,,,,,,,,,,,,,,,,,,,,,,1725.6202,1726.8721,1726.8721,1727.8716,,,,,,0,0.5,,,,,,,,,,,,,,,,,,,,,,,,,,,,,,,,,,,,,,,,,,,,,,,,,,,,,0,39,39,9,1,,,,,,,,,,,,,,,,,,
,,,,,,,,Harbor,2,Female,Hispanic/Latino,n/a,2024-12-13_14h34.24.288,dissOSARI,2023.2.3,Win32,60.24096386,,,,,,,,,,,,,,,,,,,,,,,,,,,,,,,,1727.8718,1729.0899,1729.0899,1730.09,,,,,,0,0.5,,,,,,,,,,,,,,,,,,,,,,,,,,,,,,,,,,,,,,,,,,,,,,,,,,,,,0,40,40,33,1,,,,,,,,,,,,,,,,,,
,,,,,,,,Harbor,2,Female,Hispanic/Latino,n/a,2024-12-13_14h34.24.288,dissOSARI,2023.2.3,Win32,60.24096386,,,,,,,,,,,,,,,,,,,,,,,,,,,,,,,,1730.0902,1731.2763,1731.2763,1732.2724,,,,,,0,0.5,,,,,,,,,,,,,,,,,,,,,,,,,,,,,,,,,,,,,,,,,,,,,,,,,,,,,0,41,41,7,1,,,,,,,,,,,,,,,,,,
,,,,,,,,Harbor,2,Female,Hispanic/Latino,n/a,2024-12-13_14h34.24.288,dissOSARI,2023.2.3,Win32,60.24096386,,,,,,,,,,,,,,,,,,,,,,,,,,,,,,,,1732.2727,1733.4274,1733.4274,1734.4268,,,,,,0,0.5,,,,,,,,,,,,,,,,,,,,,,,,,,,,,,,,,,,,,,,,,,,,,,,,,,,,,0,42,42,5,1,,,,,,,,,,,,,,,,,,
,,,,,,,,Harbor,2,Female,Hispanic/Latino,n/a,2024-12-13_14h34.24.288,dissOSARI,2023.2.3,Win32,60.24096386,,,,,,,,,,,,,,,,,,,,,,,,,,,,,,,,1734.4269,1735.5464,1735.5464,1736.5458,,,,,,1,0.5,,,,,,,,,,,,,,,,,,,,,,,,,,,,,,,,,,,,,,,,,,,,,,,,,,,,,0,43,43,68,1,,,,,,,,,,,,,,,,,,
,,,,,,,,Harbor,2,Female,Hispanic/Latino,n/a,2024-12-13_14h34.24.288,dissOSARI,2023.2.3,Win32,60.24096386,,,,,,,,,,,,,,,,,,,,,,,,,,,,,,,,1736.5462,1737.881,1737.881,1738.8807,,,,,,1,0.5,,,,,,,,,,,,,,,,,,,,,,,,,,,,,,,,,,,,,,,,,,,,,,,,,,,,,0,44,44,60,1,,,,,,,,,,,,,,,,,,
,,,,,,,,Harbor,2,Female,Hispanic/Latino,n/a,2024-12-13_14h34.24.288,dissOSARI,2023.2.3,Win32,60.24096386,,,,,,,,,,,,,,,,,,,,,,,,,,,,,,,,1738.8809,1740.0333,1740.0333,1741.0299,,,,,,0,0.5,,,,,,,,,,,,,,,,,,,,,,,,,,,,,,,,,,,,,,,,,,,,,,,,,,,,,0,45,45,37,1,,,,,,,,,,,,,,,,,,
,,,,,,,,Harbor,2,Female,Hispanic/Latino,n/a,2024-12-13_14h34.24.288,dissOSARI,2023.2.3,Win32,60.24096386,,,,,,,,,,,,,,,,,,,,,,,,,,,,,,,,1741.0308,1742.1852,1742.1852,1743.1813,,,,,,0,0.5,,,,,,,,,,,,,,,,,,,,,,,,,,,,,,,,,,,,,,,,,,,,,,,,,,,,,0,46,46,45,1,,,,,,,,,,,,,,,,,,
,,,,,,,,Harbor,2,Female,Hispanic/Latino,n/a,2024-12-13_14h34.24.288,dissOSARI,2023.2.3,Win32,60.24096386,,,,,,,,,,,,,,,,,,,,,,,,,,,,,,,,1743.1818,1744.2526,1744.2526,1745.2493,,,,,,0,0.5,,,,,,,,,,,,,,,,,,,,,,,,,,,,,,,,,,,,,,,,,,,,,,,,,,,,,0,47,47,8,1,,,,,,,,,,,,,,,,,,
,,,,,,,,Harbor,2,Female,Hispanic/Latino,n/a,2024-12-13_14h34.24.288,dissOSARI,2023.2.3,Win32,60.24096386,,,,,,,,,,,,,,,,,,,,,,,,,,,,,,,,1745.2495,1746.4051,1746.4051,1747.4018,,,,,,0,0.5,,,,,,,,,,,,,,,,,,,,,,,,,,,,,,,,,,,,,,,,,,,,,,,,,,,,,0,48,48,10,1,,,,,,,,,,,,,,,,,,
,,,,,,,,Harbor,2,Female,Hispanic/Latino,n/a,2024-12-13_14h34.24.288,dissOSARI,2023.2.3,Win32,60.24096386,,,,,,,,,,,,,,,,,,,,,,,,,,,,,,,,1747.4024,1748.5895,1748.5895,1749.5896,,,,,,0,0.5,,,,,,,,,,,,,,,,,,,,,,,,,,,,,,,,,,,,,,,,,,,,,,,,,,,,,0,49,49,15,1,,,,,,,,,,,,,,,,,,
,,,,,,,,Harbor,2,Female,Hispanic/Latino,n/a,2024-12-13_14h34.24.288,dissOSARI,2023.2.3,Win32,60.24096386,,,,,,,,,,,,,,,,,,,,,,,,,,,,,,,,1749.5897,1750.7926,1750.7926,1751.7915,,,,,,0,0.5,,,,,,,,,,,,,,,,,,,,,,,,,,,,,,,,,,,,,,,,,,,,,,,,,,,,,0,50,50,50,1,,,,,,,,,,,,,,,,,,
,,,,,,,,Harbor,2,Female,Hispanic/Latino,n/a,2024-12-13_14h34.24.288,dissOSARI,2023.2.3,Win32,60.24096386,,,,,,,,,,,,,,,,,,,,,,,,,,,,,,,,1751.7917,1753.0098,1753.0098,1754.0067,,,,,,0,0.5,,,,,,,,,,,,,,,,,,,,,,,,,,,,,,,,,,,,,,,,,,,,,,,,,,,,,0,51,51,1,1,,,,,,,,,,,,,,,,,,
,,,,,,,,Harbor,2,Female,Hispanic/Latino,n/a,2024-12-13_14h34.24.288,dissOSARI,2023.2.3,Win32,60.24096386,,,,,,,,,,,,,,,,,,,,,,,,,,,,,,,,1754.0069,1755.2787,1755.2788,1756.2781,,,,,,0,0.5,,,,,,,,,,,,,,,,,,,,,,,,,,,,,,,,,,,,,,,,,,,,,,,,,,,,,0,52,52,28,1,,,,,,,,,,,,,,,,,,
,,,,,,,,Harbor,2,Female,Hispanic/Latino,n/a,2024-12-13_14h34.24.288,dissOSARI,2023.2.3,Win32,60.24096386,,,,,,,,,,,,,,,,,,,,,,,,,,,,,,,,1756.2784,1757.6638,1757.6639,1758.6606,,,,,,0,0.5,,,,,,,,,,,,,,,,,,,,,,,,,,,,,,,,,,,,,,,,,,,,,,,,,,,,,0,53,53,30,1,,,,,,,,,,,,,,,,,,
,,,,,,,,Harbor,2,Female,Hispanic/Latino,n/a,2024-12-13_14h34.24.288,dissOSARI,2023.2.3,Win32,60.24096386,,,,,,,,,,,,,,,,,,,,,,,,,,,,,,,,1758.6607,1760.0325,1760.0325,1761.0297,,,,,,0,0.5,,,,,,,,,,,,,,,,,,,,,,,,,,,,,,,,,,,,,,,,,,,,,,,,,,,,,0,54,54,0,1,,,,,,,,,,,,,,,,,,
,,,,,,,,Harbor,2,Female,Hispanic/Latino,n/a,2024-12-13_14h34.24.288,dissOSARI,2023.2.3,Win32,60.24096386,,,,,,,,,,,,,,,,,,,,,,,,,,,,,,,,1761.0304,1762.151,1762.151,1763.1478,,,,,,1,0.5,,,,,,,,,,,,,,,,,,,,,,,,,,,,,,,,,,,,,,,,,,,,,,,,,,,,,0,55,55,65,1,,,,,,,,,,,,,,,,,,
,,,,,,,,Harbor,2,Female,Hispanic/Latino,n/a,2024-12-13_14h34.24.288,dissOSARI,2023.2.3,Win32,60.24096386,,,,,,,,,,,,,,,,,,,,,,,,,,,,,,,,1763.148,1766.3878,1766.3878,1767.3846,,,,,,0,0.5,,,,,,,,,,,,,,,,,,,,,,,,,,,,,,,,,,,,,,,,,,,,,,,,,,,,,0,56,56,6,1,,,,,,,,,,,,,,,,,,
,,,,,,,,Harbor,2,Female,Hispanic/Latino,n/a,2024-12-13_14h34.24.288,dissOSARI,2023.2.3,Win32,60.24096386,,,,,,,,,,,,,,,,,,,,,,,,,,,,,,,,1767.3849,1769.4401,1769.4401,1770.4371,,,,,,0,0.5,,,,,,,,,,,,,,,,,,,,,,,,,,,,,,,,,,,,,,,,,,,,,,,,,,,,,0,57,57,47,1,,,,,,,,,,,,,,,,,,
,,,,,,,,Harbor,2,Female,Hispanic/Latino,n/a,2024-12-13_14h34.24.288,dissOSARI,2023.2.3,Win32,60.24096386,,,,,,,,,,,,,,,,,,,,,,,,,,,,,,,,1770.4374,1771.5593,1771.5593,1772.5594,,,,,,0,0.5,,,,,,,,,,,,,,,,,,,,,,,,,,,,,,,,,,,,,,,,,,,,,,,,,,,,,0,58,58,29,1,,,,,,,,,,,,,,,,,,
,,,,,,,,Harbor,2,Female,Hispanic/Latino,n/a,2024-12-13_14h34.24.288,dissOSARI,2023.2.3,Win32,60.24096386,,,,,,,,,,,,,,,,,,,,,,,,,,,,,,,,1772.5597,1773.9938,1773.9938,1774.9914,,,,,,1,0.5,,,,,,,,,,,,,,,,,,,,,,,,,,,,,,,,,,,,,,,,,,,,,,,,,,,,,0,59,59,78,1,,,,,,,,,,,,,,,,,,
,,,,,,,,Harbor,2,Female,Hispanic/Latino,n/a,2024-12-13_14h34.24.288,dissOSARI,2023.2.3,Win32,60.24096386,,,,,,,,,,,,,,,,,,,,,,,,,,,,,,,,1774.9923,1780.1659,1780.1661,1781.1661,,,,,,0,0.5,,,,,,,,,,,,,,,,,,,,,,,,,,,,,,,,,,,,,,,,,,,,,,,,,,,,,0,60,60,40,1,,,,,,,,,,,,,,,,,,
,,,,,,,,Harbor,2,Female,Hispanic/Latino,n/a,2024-12-13_14h34.24.288,dissOSARI,2023.2.3,Win32,60.24096386,,,,,,,,,,,,,,,,,,,,,,,,,,,,,,,,1781.1663,1782.9345,1782.9346,1783.9318,,,,,,0,0.5,,,,,,,,,,,,,,,,,,,,,,,,,,,,,,,,,,,,,,,,,,,,,,,,,,,,,0,61,61,56,1,,,,,,,,,,,,,,,,,,
,,,,,,,,Harbor,2,Female,Hispanic/Latino,n/a,2024-12-13_14h34.24.288,dissOSARI,2023.2.3,Win32,60.24096386,,,,,,,,,,,,,,,,,,,,,,,,,,,,,,,,1783.9326,1784.953,1784.953,1785.9503,,,,,,0,0.5,,,,,,,,,,,,,,,,,,,,,,,,,,,,,,,,,,,,,,,,,,,,,,,,,,,,,0,62,62,39,1,,,,,,,,,,,,,,,,,,
,,,,,,,,Harbor,2,Female,Hispanic/Latino,n/a,2024-12-13_14h34.24.288,dissOSARI,2023.2.3,Win32,60.24096386,,,,,,,,,,,,,,,,,,,,,,,,,,,,,,,,1785.951,1787.1878,1787.1878,1788.185,,,,,,1,0.5,,,,,,,,,,,,,,,,,,,,,,,,,,,,,,,,,,,,,,,,,,,,,,,,,,,,,0,63,63,74,1,,,,,,,,,,,,,,,,,,
,,,,,,,,Harbor,2,Female,Hispanic/Latino,n/a,2024-12-13_14h34.24.288,dissOSARI,2023.2.3,Win32,60.24096386,,,,,,,,,,,,,,,,,,,,,,,,,,,,,,,,1788.1852,1789.3217,1789.3217,1790.3207,,,,,,0,0.5,,,,,,,,,,,,,,,,,,,,,,,,,,,,,,,,,,,,,,,,,,,,,,,,,,,,,0,64,64,51,1,,,,,,,,,,,,,,,,,,
,,,,,,,,Harbor,2,Female,Hispanic/Latino,n/a,2024-12-13_14h34.24.288,dissOSARI,2023.2.3,Win32,60.24096386,,,,,,,,,,,,,,,,,,,,,,,,,,,,,,,,1790.3214,1791.459,1791.459,1792.4553,,,,,,0,0.5,,,,,,,,,,,,,,,,,,,,,,,,,,,,,,,,,,,,,,,,,,,,,,,,,,,,,0,65,65,36,1,,,,,,,,,,,,,,,,,,
,,,,,,,,Harbor,2,Female,Hispanic/Latino,n/a,2024-12-13_14h34.24.288,dissOSARI,2023.2.3,Win32,60.24096386,,,,,,,,,,,,,,,,,,,,,,,,,,,,,,,,1792.4555,1794.0105,1794.0105,1795.0075,,,,,,1,0.5,,,,,,,,,,,,,,,,,,,,,,,,,,,,,,,,,,,,,,,,,,,,,,,,,,,,,0,66,66,75,1,,,,,,,,,,,,,,,,,,
,,,,,,,,Harbor,2,Female,Hispanic/Latino,n/a,2024-12-13_14h34.24.288,dissOSARI,2023.2.3,Win32,60.24096386,,,,,,,,,,,,,,,,,,,,,,,,,,,,,,,,1795.0079,1796.3793,1796.3793,1797.3761,,,,,,0,0.5,,,,,,,,,,,,,,,,,,,,,,,,,,,,,,,,,,,,,,,,,,,,,,,,,,,,,0,67,67,12,1,,,,,,,,,,,,,,,,,,
,,,,,,,,Harbor,2,Female,Hispanic/Latino,n/a,2024-12-13_14h34.24.288,dissOSARI,2023.2.3,Win32,60.24096386,,,,,,,,,,,,,,,,,,,,,,,,,,,,,,,,1797.3763,1798.5817,1798.5817,1799.5778,,,,,,1,0.5,,,,,,,,,,,,,,,,,,,,,,,,,,,,,,,,,,,,,,,,,,,,,,,,,,,,,0,68,68,72,1,,,,,,,,,,,,,,,,,,
,,,,,,,,Harbor,2,Female,Hispanic/Latino,n/a,2024-12-13_14h34.24.288,dissOSARI,2023.2.3,Win32,60.24096386,,,,,,,,,,,,,,,,,,,,,,,,,,,,,,,,1799.5781,1800.9164,1800.9164,1801.9136,,,,,,0,0.5,,,,,,,,,,,,,,,,,,,,,,,,,,,,,,,,,,,,,,,,,,,,,,,,,,,,,0,69,69,25,1,,,,,,,,,,,,,,,,,,
,,,,,,,,Harbor,2,Female,Hispanic/Latino,n/a,2024-12-13_14h34.24.288,dissOSARI,2023.2.3,Win32,60.24096386,,,,,,,,,,,,,,,,,,,,,,,,,,,,,,,,1801.9142,1803.3354,1803.3354,1804.3322,,,,,,0,0.5,,,,,,,,,,,,,,,,,,,,,,,,,,,,,,,,,,,,,,,,,,,,,,,,,,,,,0,70,70,42,1,,,,,,,,,,,,,,,,,,
,,,,,,,,Harbor,2,Female,Hispanic/Latino,n/a,2024-12-13_14h34.24.288,dissOSARI,2023.2.3,Win32,60.24096386,,,,,,,,,,,,,,,,,,,,,,,,,,,,,,,,1804.3328,1805.5197,1805.5197,1806.5171,,,,,,0,0.5,,,,,,,,,,,,,,,,,,,,,,,,,,,,,,,,,,,,,,,,,,,,,,,,,,,,,0,71,71,55,1,,,,,,,,,,,,,,,,,,
,,,,,,,,Harbor,2,Female,Hispanic/Latino,n/a,2024-12-13_14h34.24.288,dissOSARI,2023.2.3,Win32,60.24096386,,,,,,,,,,,,,,,,,,,,,,,,,,,,,,,,1806.5174,1807.6382,1807.6383,1808.6352,,,,,,1,0.5,,,,,,,,,,,,,,,,,,,,,,,,,,,,,,,,,,,,,,,,,,,,,,,,,,,,,0,72,72,64,1,,,,,,,,,,,,,,,,,,
,,,,,,,,Harbor,2,Female,Hispanic/Latino,n/a,2024-12-13_14h34.24.288,dissOSARI,2023.2.3,Win32,60.24096386,,,,,,,,,,,,,,,,,,,,,,,,,,,,,,,,1808.6354,1811.8421,1811.8421,1812.8388,,,,,,0,0.5,,,,,,,,,,,,,,,,,,,,,,,,,,,,,,,,,,,,,,,,,,,,,,,,,,,,,0,73,73,24,1,,,,,,,,,,,,,,,,,,
,,,,,,,,Harbor,2,Female,Hispanic/Latino,n/a,2024-12-13_14h34.24.288,dissOSARI,2023.2.3,Win32,60.24096386,,,,,,,,,,,,,,,,,,,,,,,,,,,,,,,,1812.839,1814.9782,1814.9782,1815.9775,,,,,,0,0.5,,,,,,,,,,,,,,,,,,,,,,,,,,,,,,,,,,,,,,,,,,,,,,,,,,,,,0,74,74,17,1,,,,,,,,,,,,,,,,,,
,,,,,,,,Harbor,2,Female,Hispanic/Latino,n/a,2024-12-13_14h34.24.288,dissOSARI,2023.2.3,Win32,60.24096386,,,,,,,,,,,,,,,,,,,,,,,,,,,,,,,,1815.9778,1817.3303,1817.3304,1818.3307,,,,,,1,0.5,,,,,,,,,,,,,,,,,,,,,,,,,,,,,,,,,,,,,,,,,,,,,,,,,,,,,0,75,75,62,1,,,,,,,,,,,,,,,,,,
,,,,,,,,Harbor,2,Female,Hispanic/Latino,n/a,2024-12-13_14h34.24.288,dissOSARI,2023.2.3,Win32,60.24096386,,,,,,,,,,,,,,,,,,,,,,,,,,,,,,,,1818.3309,1819.7146,1819.7147,1820.7119,,,,,,1,0.5,,,,,,,,,,,,,,,,,,,,,,,,,,,,,,,,,,,,,,,,,,,,,,,,,,,,,0,76,76,76,1,,,,,,,,,,,,,,,,,,
,,,,,,,,Harbor,2,Female,Hispanic/Latino,n/a,2024-12-13_14h34.24.288,dissOSARI,2023.2.3,Win32,60.24096386,,,,,,,,,,,,,,,,,,,,,,,,,,,,,,,,1820.7122,1821.8331,1821.8331,1822.8336,,,,,,0,0.5,,,,,,,,,,,,,,,,,,,,,,,,,,,,,,,,,,,,,,,,,,,,,,,,,,,,,0,77,77,34,1,,,,,,,,,,,,,,,,,,
,,,,,,,,Harbor,2,Female,Hispanic/Latino,n/a,2024-12-13_14h34.24.288,dissOSARI,2023.2.3,Win32,60.24096386,,,,,,,,,,,,,,,,,,,,,,,,,,,,,,,,1822.8337,1823.9516,1823.9516,1824.9491,,,,,,0,0.5,,,,,,,,,,,,,,,,,,,,,,,,,,,,,,,,,,,,,,,,,,,,,,,,,,,,,0,78,78,38,1,,,,,,,,,,,,,,,,,,
,,,,,,,,Harbor,2,Female,Hispanic/Latino,n/a,2024-12-13_14h34.24.288,dissOSARI,2023.2.3,Win32,60.24096386,,,,,,,,,,,,,,,,,,,,,,,,,,,,,,,,1824.9492,1826.087,1826.087,1827.0874,,,,,,0,0.5,,,,,,,,,,,,,,,,,,,,,,,,,,,,,,,,,,,,,,,,,,,,,,,,,,,,,0,79,79,44,1,,,,,,,,,,,,,,,,,,
,,,,,,,,Harbor,2,Female,Hispanic/Latino,n/a,2024-12-13_14h34.24.288,dissOSARI,2023.2.3,Win32,60.24096386,,,,,,,,,,,,,,,,,,,,,,,,,,,,,,,,,,,,,,,,,,,,,,,,,,,,,,,,,,,,,,,,,,,,,,,,,,,,,,,,,,,,,,,,,,,,,,,,,,,,1827.0878,1837.5806,3,0.166534496,-0.399286281,1,0,0,9.9919,EndFatigue,,,,,,,,
,,,,,,,,Harbor,2,Female,Hispanic/Latino,n/a,2024-12-13_14h34.24.288,dissOSARI,2023.2.3,Win32,60.24096386,,,,,,,,,,,,,,,,,,,,,,,,,,,,,,,,,,,,,,,,,,,,,,,,,,,,,,,,,,,,,,,,,,,,,,,,,,,,,,,,,,,,,,,,,,,,,,,,,,,,,,,,,,,,,,1837.5808,1841.75,0.324345757,-0.11221253,1,0,0,4.1684