welcome.started,welcome.stopped,WelcomeClick.x,WelcomeClick.y,WelcomeClick.leftButton,WelcomeClick.midButton,WelcomeClick.rightButton,WelcomeClick.time,participant,week,gender,race/ ethnicity,cognitive health history,date,expName,psychopyVersion,OS,frameRate,intro.started,intro.stopped,readyClick.x,readyClick.y,readyClick.leftButton,readyClick.midButton,readyClick.rightButton,practGoInst.started,practGoInst.stopped,PractGoClick.x,PractGoClick.y,PractGoClick.leftButton,PractGoClick.midButton,PractGoClick.rightButton,PractGoClick.time,practGoInst2.started,practGoInst2.stopped,PractGo2Click.x,PractGo2Click.y,PractGo2Click.leftButton,PractGo2Click.midButton,PractGo2Click.rightButton,PractGo2Click.time,practGoInst3.started,practGoInst3.stopped,PractGo3Click.x,PractGo3Click.y,PractGo3Click.leftButton,PractGo3Click.midButton,PractGo3Click.rightButton,PractGo3Click.time,trial.started,trial.stopped,feedback.started,feedback.stopped,practGo.thisRepN,practGo.thisTrialN,practGo.thisN,practGo.thisIndex,practGo.ran,Signal,fixedStopTime,testGoInst.started,testGoInst.stopped,GoTestClick.x,GoTestClick.y,GoTestClick.leftButton,GoTestClick.midButton,GoTestClick.rightButton,GoTestClick.time,TestGo.thisRepN,TestGo.thisTrialN,TestGo.thisN,TestGo.thisIndex,TestGo.ran,mixPractIntro.started,mixPractIntro.stopped,MixIntroClick.x,MixIntroClick.y,MixIntroClick.leftButton,MixIntroClick.midButton,MixIntroClick.rightButton,MixIntroClick.time,mixPractInst.started,mixPractInst.stopped,StopInstClick.x,StopInstClick.y,StopInstClick.leftButton,StopInstClick.midButton,StopInstClick.rightButton,StopInstClick.time,mixPractInst2.started,mixPractInst2.stopped,PractStop2Click.x,PractStop2Click.y,PractStop2Click.leftButton,PractStop2Click.midButton,PractStop2Click.rightButton,PractStop2Click.time,mixPractInst3.started,mixPractInst3.stopped,PractStop3Click.x,PractStop3Click.y,PractStop3Click.leftButton,PractStop3Click.midButton,PractStop3Click.rightButton,PractStop3Click.time,mixPract.thisRepN,mixPract.thisTrialN,mixPract.thisN,mixPract.thisIndex,mixPract.ran,breakResetTrial.started,breakResetTrial.stopped,trials.thisRepN,trials.thisTrialN,trials.thisN,trials.thisIndex,trials.ran,MentalFatigue.started,MentalFatigue.stopped,textbox.text,EndClick.x,EndClick.y,EndClick.leftButton,EndClick.midButton,EndClick.rightButton,EndClick.time,EndClick.clicked_name,end.started,end.stopped,mouse_2.x,mouse_2.y,mouse_2.leftButton,mouse_2.midButton,mouse_2.rightButton,mouse_2.time
9.99999E-05,7.7948,-0.004569688,-0.047600914,1,0,0,7.5398,Cascade,1,Female,Hispanic/Latino,NA,2024-12-05_10h35.23.204,dissOSARI,2023.2.3,Win32,59.88023952,,,,,,,,,,,,,,,,,,,,,,,,,,,,,,,,,,,,,,,,,,,,,,,,,,,,,,,,,,,,,,,,,,,,,,,,,,,,,,,,,,,,,,,,,,,,,,,,,,,,,,,,,,,,,,,,,,,,,
,,,,,,,,Cascade,1,Female,Hispanic/Latino,NA,2024-12-05_10h35.23.204,dissOSARI,2023.2.3,Win32,59.88023952,7.795,23.7239,-0.006854532,-0.047600914,1,0,0,,,,,,,,,,,,,,,,,,,,,,,,,,,,,,,,,,,,,,,,,,,,,,,,,,,,,,,,,,,,,,,,,,,,,,,,,,,,,,,,,,,,,,,,,,,,,,,,,,,,,,,,,,,,,,
,,,,,,,,Cascade,1,Female,Hispanic/Latino,NA,2024-12-05_10h35.23.204,dissOSARI,2023.2.3,Win32,59.88023952,,,,,,,,23.7242,30.2303,0.089870526,-0.142041127,1,0,0,6.2551,,,,,,,,,,,,,,,,,,,,,,,,,,,,,,,,,,,,,,,,,,,,,,,,,,,,,,,,,,,,,,,,,,,,,,,,,,,,,,,,,,,,,,,,,,,,,,,,,,,,,,
,,,,,,,,Cascade,1,Female,Hispanic/Latino,NA,2024-12-05_10h35.23.204,dissOSARI,2023.2.3,Win32,59.88023952,,,,,,,,,,,,,,,,30.2308,40.2045,-0.028179741,-0.169459254,1,0,0,9.7083,,,,,,,,,,,,,,,,,,,,,,,,,,,,,,,,,,,,,,,,,,,,,,,,,,,,,,,,,,,,,,,,,,,,,,,,,,,,,,,,,,,,,,,,,,,,,,
,,,,,,,,Cascade,1,Female,Hispanic/Latino,NA,2024-12-05_10h35.23.204,dissOSARI,2023.2.3,Win32,59.88023952,,,,,,,,,,,,,,,,,,,,,,,,40.2047,42.5902,-0.018278751,-0.153465347,1,0,0,2.1351,,,,,,,,,,,,,,,,,,,,,,,,,,,,,,,,,,,,,,,,,,,,,,,,,,,,,,,,,,,,,,,,,,,,,,,,,,,,,,,,,,,,,,
,,,,,,,,Cascade,1,Female,Hispanic/Latino,NA,2024-12-05_10h35.23.204,dissOSARI,2023.2.3,Win32,59.88023952,,,,,,,,,,,,,,,,,,,,,,,,,,,,,,,,42.5946,44.9595,44.9597,45.96,0,0,0,2,1,0,0.5,,,,,,,,,,,,,,,,,,,,,,,,,,,,,,,,,,,,,,,,,,,,,,,,,,,,,,,,,,,,,,,,,,,,,,,,,,,
,,,,,,,,Cascade,1,Female,Hispanic/Latino,NA,2024-12-05_10h35.23.204,dissOSARI,2023.2.3,Win32,59.88023952,,,,,,,,,,,,,,,,,,,,,,,,,,,,,,,,45.961,47.3946,47.3946,48.3948,0,1,1,0,1,0,0.5,,,,,,,,,,,,,,,,,,,,,,,,,,,,,,,,,,,,,,,,,,,,,,,,,,,,,,,,,,,,,,,,,,,,,,,,,,,
,,,,,,,,Cascade,1,Female,Hispanic/Latino,NA,2024-12-05_10h35.23.204,dissOSARI,2023.2.3,Win32,59.88023952,,,,,,,,,,,,,,,,,,,,,,,,,,,,,,,,48.3954,49.6793,49.6794,50.6798,0,2,2,4,1,0,0.5,,,,,,,,,,,,,,,,,,,,,,,,,,,,,,,,,,,,,,,,,,,,,,,,,,,,,,,,,,,,,,,,,,,,,,,,,,,
,,,,,,,,Cascade,1,Female,Hispanic/Latino,NA,2024-12-05_10h35.23.204,dissOSARI,2023.2.3,Win32,59.88023952,,,,,,,,,,,,,,,,,,,,,,,,,,,,,,,,50.6803,52.032,52.032,53.032,0,3,3,3,1,0,0.5,,,,,,,,,,,,,,,,,,,,,,,,,,,,,,,,,,,,,,,,,,,,,,,,,,,,,,,,,,,,,,,,,,,,,,,,,,,
,,,,,,,,Cascade,1,Female,Hispanic/Latino,NA,2024-12-05_10h35.23.204,dissOSARI,2023.2.3,Win32,59.88023952,,,,,,,,,,,,,,,,,,,,,,,,,,,,,,,,53.0325,54.1838,54.1838,55.1836,0,4,4,1,1,0,0.5,,,,,,,,,,,,,,,,,,,,,,,,,,,,,,,,,,,,,,,,,,,,,,,,,,,,,,,,,,,,,,,,,,,,,,,,,,,
,,,,,,,,Cascade,1,Female,Hispanic/Latino,NA,2024-12-05_10h35.23.204,dissOSARI,2023.2.3,Win32,59.88023952,,,,,,,,,,,,,,,,,,,,,,,,,,,,,,,,,,,,,,,,,,,55.1838,57.9699,0.367098248,-0.406321401,1,0,0,2.0191,,,,,,,,,,,,,,,,,,,,,,,,,,,,,,,,,,,,,,,,,,,,,,,,,,,,,,,,,,,,,,,,,,,
,,,,,,,,Cascade,1,Female,Hispanic/Latino,NA,2024-12-05_10h35.23.204,dissOSARI,2023.2.3,Win32,59.88023952,,,,,,,,,,,,,,,,,,,,,,,,,,,,,,,,57.973,58.0534,58.0534,59.0536,,,,,,0,0.5,,,,,,,,,0,0,0,30,1,,,,,,,,,,,,,,,,,,,,,,,,,,,,,,,,,,,,,,,,,,,,,,,,,,,,,,,,,,,,,,
,,,,,,,,Cascade,1,Female,Hispanic/Latino,NA,2024-12-05_10h35.23.204,dissOSARI,2023.2.3,Win32,59.88023952,,,,,,,,,,,,,,,,,,,,,,,,,,,,,,,,59.054,61.1395,61.1396,62.1394,,,,,,0,0.5,,,,,,,,,0,1,1,46,1,,,,,,,,,,,,,,,,,,,,,,,,,,,,,,,,,,,,,,,,,,,,,,,,,,,,,,,,,,,,,,
,,,,,,,,Cascade,1,Female,Hispanic/Latino,NA,2024-12-05_10h35.23.204,dissOSARI,2023.2.3,Win32,59.88023952,,,,,,,,,,,,,,,,,,,,,,,,,,,,,,,,62.1398,63.3243,63.3244,64.3246,,,,,,0,0.5,,,,,,,,,0,2,2,29,1,,,,,,,,,,,,,,,,,,,,,,,,,,,,,,,,,,,,,,,,,,,,,,,,,,,,,,,,,,,,,,
,,,,,,,,Cascade,1,Female,Hispanic/Latino,NA,2024-12-05_10h35.23.204,dissOSARI,2023.2.3,Win32,59.88023952,,,,,,,,,,,,,,,,,,,,,,,,,,,,,,,,64.3252,65.4256,65.4256,66.4262,,,,,,0,0.5,,,,,,,,,0,3,3,36,1,,,,,,,,,,,,,,,,,,,,,,,,,,,,,,,,,,,,,,,,,,,,,,,,,,,,,,,,,,,,,,
,,,,,,,,Cascade,1,Female,Hispanic/Latino,NA,2024-12-05_10h35.23.204,dissOSARI,2023.2.3,Win32,59.88023952,,,,,,,,,,,,,,,,,,,,,,,,,,,,,,,,66.4267,67.5947,67.5947,68.5948,,,,,,0,0.5,,,,,,,,,0,4,4,15,1,,,,,,,,,,,,,,,,,,,,,,,,,,,,,,,,,,,,,,,,,,,,,,,,,,,,,,,,,,,,,,
,,,,,,,,Cascade,1,Female,Hispanic/Latino,NA,2024-12-05_10h35.23.204,dissOSARI,2023.2.3,Win32,59.88023952,,,,,,,,,,,,,,,,,,,,,,,,,,,,,,,,68.5958,69.7622,69.7622,70.7629,,,,,,0,0.5,,,,,,,,,0,5,5,4,1,,,,,,,,,,,,,,,,,,,,,,,,,,,,,,,,,,,,,,,,,,,,,,,,,,,,,,,,,,,,,,
,,,,,,,,Cascade,1,Female,Hispanic/Latino,NA,2024-12-05_10h35.23.204,dissOSARI,2023.2.3,Win32,59.88023952,,,,,,,,,,,,,,,,,,,,,,,,,,,,,,,,70.7633,71.9139,71.9139,72.9147,,,,,,0,0.5,,,,,,,,,0,6,6,23,1,,,,,,,,,,,,,,,,,,,,,,,,,,,,,,,,,,,,,,,,,,,,,,,,,,,,,,,,,,,,,,
,,,,,,,,Cascade,1,Female,Hispanic/Latino,NA,2024-12-05_10h35.23.204,dissOSARI,2023.2.3,Win32,59.88023952,,,,,,,,,,,,,,,,,,,,,,,,,,,,,,,,72.9149,74.0832,74.0833,75.0833,,,,,,0,0.5,,,,,,,,,0,7,7,28,1,,,,,,,,,,,,,,,,,,,,,,,,,,,,,,,,,,,,,,,,,,,,,,,,,,,,,,,,,,,,,,
,,,,,,,,Cascade,1,Female,Hispanic/Latino,NA,2024-12-05_10h35.23.204,dissOSARI,2023.2.3,Win32,59.88023952,,,,,,,,,,,,,,,,,,,,,,,,,,,,,,,,75.0838,76.3179,76.3179,77.3185,,,,,,0,0.5,,,,,,,,,0,8,8,24,1,,,,,,,,,,,,,,,,,,,,,,,,,,,,,,,,,,,,,,,,,,,,,,,,,,,,,,,,,,,,,,
,,,,,,,,Cascade,1,Female,Hispanic/Latino,NA,2024-12-05_10h35.23.204,dissOSARI,2023.2.3,Win32,59.88023952,,,,,,,,,,,,,,,,,,,,,,,,,,,,,,,,77.319,78.4871,78.4871,79.487,,,,,,0,0.5,,,,,,,,,0,9,9,9,1,,,,,,,,,,,,,,,,,,,,,,,,,,,,,,,,,,,,,,,,,,,,,,,,,,,,,,,,,,,,,,
,,,,,,,,Cascade,1,Female,Hispanic/Latino,NA,2024-12-05_10h35.23.204,dissOSARI,2023.2.3,Win32,59.88023952,,,,,,,,,,,,,,,,,,,,,,,,,,,,,,,,79.4875,80.6387,80.6387,81.6392,,,,,,0,0.5,,,,,,,,,0,10,10,20,1,,,,,,,,,,,,,,,,,,,,,,,,,,,,,,,,,,,,,,,,,,,,,,,,,,,,,,,,,,,,,,
,,,,,,,,Cascade,1,Female,Hispanic/Latino,NA,2024-12-05_10h35.23.204,dissOSARI,2023.2.3,Win32,59.88023952,,,,,,,,,,,,,,,,,,,,,,,,,,,,,,,,81.6396,82.9907,82.9908,83.9913,,,,,,0,0.5,,,,,,,,,0,11,11,6,1,,,,,,,,,,,,,,,,,,,,,,,,,,,,,,,,,,,,,,,,,,,,,,,,,,,,,,,,,,,,,,
,,,,,,,,Cascade,1,Female,Hispanic/Latino,NA,2024-12-05_10h35.23.204,dissOSARI,2023.2.3,Win32,59.88023952,,,,,,,,,,,,,,,,,,,,,,,,,,,,,,,,83.9917,85.0757,85.0758,86.0753,,,,,,0,0.5,,,,,,,,,0,12,12,13,1,,,,,,,,,,,,,,,,,,,,,,,,,,,,,,,,,,,,,,,,,,,,,,,,,,,,,,,,,,,,,,
,,,,,,,,Cascade,1,Female,Hispanic/Latino,NA,2024-12-05_10h35.23.204,dissOSARI,2023.2.3,Win32,59.88023952,,,,,,,,,,,,,,,,,,,,,,,,,,,,,,,,86.0755,87.1775,87.1775,88.1779,,,,,,0,0.5,,,,,,,,,0,13,13,32,1,,,,,,,,,,,,,,,,,,,,,,,,,,,,,,,,,,,,,,,,,,,,,,,,,,,,,,,,,,,,,,
,,,,,,,,Cascade,1,Female,Hispanic/Latino,NA,2024-12-05_10h35.23.204,dissOSARI,2023.2.3,Win32,59.88023952,,,,,,,,,,,,,,,,,,,,,,,,,,,,,,,,88.1782,89.3625,89.3626,90.3629,,,,,,0,0.5,,,,,,,,,0,14,14,2,1,,,,,,,,,,,,,,,,,,,,,,,,,,,,,,,,,,,,,,,,,,,,,,,,,,,,,,,,,,,,,,
,,,,,,,,Cascade,1,Female,Hispanic/Latino,NA,2024-12-05_10h35.23.204,dissOSARI,2023.2.3,Win32,59.88023952,,,,,,,,,,,,,,,,,,,,,,,,,,,,,,,,90.3637,91.4142,91.4143,92.4144,,,,,,0,0.5,,,,,,,,,0,15,15,45,1,,,,,,,,,,,,,,,,,,,,,,,,,,,,,,,,,,,,,,,,,,,,,,,,,,,,,,,,,,,,,,
,,,,,,,,Cascade,1,Female,Hispanic/Latino,NA,2024-12-05_10h35.23.204,dissOSARI,2023.2.3,Win32,59.88023952,,,,,,,,,,,,,,,,,,,,,,,,,,,,,,,,92.4149,93.6659,93.666,94.6662,,,,,,0,0.5,,,,,,,,,0,16,16,33,1,,,,,,,,,,,,,,,,,,,,,,,,,,,,,,,,,,,,,,,,,,,,,,,,,,,,,,,,,,,,,,
,,,,,,,,Cascade,1,Female,Hispanic/Latino,NA,2024-12-05_10h35.23.204,dissOSARI,2023.2.3,Win32,59.88023952,,,,,,,,,,,,,,,,,,,,,,,,,,,,,,,,94.6667,95.6843,95.6843,96.6847,,,,,,0,0.5,,,,,,,,,0,17,17,16,1,,,,,,,,,,,,,,,,,,,,,,,,,,,,,,,,,,,,,,,,,,,,,,,,,,,,,,,,,,,,,,
,,,,,,,,Cascade,1,Female,Hispanic/Latino,NA,2024-12-05_10h35.23.204,dissOSARI,2023.2.3,Win32,59.88023952,,,,,,,,,,,,,,,,,,,,,,,,,,,,,,,,96.6851,97.753,97.753,98.7531,,,,,,0,0.5,,,,,,,,,0,18,18,37,1,,,,,,,,,,,,,,,,,,,,,,,,,,,,,,,,,,,,,,,,,,,,,,,,,,,,,,,,,,,,,,
,,,,,,,,Cascade,1,Female,Hispanic/Latino,NA,2024-12-05_10h35.23.204,dissOSARI,2023.2.3,Win32,59.88023952,,,,,,,,,,,,,,,,,,,,,,,,,,,,,,,,98.7537,99.8038,99.8038,100.8043,,,,,,0,0.5,,,,,,,,,0,19,19,47,1,,,,,,,,,,,,,,,,,,,,,,,,,,,,,,,,,,,,,,,,,,,,,,,,,,,,,,,,,,,,,,
,,,,,,,,Cascade,1,Female,Hispanic/Latino,NA,2024-12-05_10h35.23.204,dissOSARI,2023.2.3,Win32,59.88023952,,,,,,,,,,,,,,,,,,,,,,,,,,,,,,,,100.8046,101.8896,101.8896,102.8898,,,,,,0,0.5,,,,,,,,,0,20,20,39,1,,,,,,,,,,,,,,,,,,,,,,,,,,,,,,,,,,,,,,,,,,,,,,,,,,,,,,,,,,,,,,
,,,,,,,,Cascade,1,Female,Hispanic/Latino,NA,2024-12-05_10h35.23.204,dissOSARI,2023.2.3,Win32,59.88023952,,,,,,,,,,,,,,,,,,,,,,,,,,,,,,,,102.8903,104.0077,104.0078,105.0082,,,,,,0,0.5,,,,,,,,,0,21,21,31,1,,,,,,,,,,,,,,,,,,,,,,,,,,,,,,,,,,,,,,,,,,,,,,,,,,,,,,,,,,,,,,
,,,,,,,,Cascade,1,Female,Hispanic/Latino,NA,2024-12-05_10h35.23.204,dissOSARI,2023.2.3,Win32,59.88023952,,,,,,,,,,,,,,,,,,,,,,,,,,,,,,,,105.0086,106.1599,106.1599,107.1601,,,,,,0,0.5,,,,,,,,,0,22,22,18,1,,,,,,,,,,,,,,,,,,,,,,,,,,,,,,,,,,,,,,,,,,,,,,,,,,,,,,,,,,,,,,
,,,,,,,,Cascade,1,Female,Hispanic/Latino,NA,2024-12-05_10h35.23.204,dissOSARI,2023.2.3,Win32,59.88023952,,,,,,,,,,,,,,,,,,,,,,,,,,,,,,,,107.1607,108.2782,108.2782,109.2783,,,,,,0,0.5,,,,,,,,,0,23,23,11,1,,,,,,,,,,,,,,,,,,,,,,,,,,,,,,,,,,,,,,,,,,,,,,,,,,,,,,,,,,,,,,
,,,,,,,,Cascade,1,Female,Hispanic/Latino,NA,2024-12-05_10h35.23.204,dissOSARI,2023.2.3,Win32,59.88023952,,,,,,,,,,,,,,,,,,,,,,,,,,,,,,,,109.2787,110.4133,110.4133,111.4137,,,,,,0,0.5,,,,,,,,,0,24,24,21,1,,,,,,,,,,,,,,,,,,,,,,,,,,,,,,,,,,,,,,,,,,,,,,,,,,,,,,,,,,,,,,
,,,,,,,,Cascade,1,Female,Hispanic/Latino,NA,2024-12-05_10h35.23.204,dissOSARI,2023.2.3,Win32,59.88023952,,,,,,,,,,,,,,,,,,,,,,,,,,,,,,,,111.4148,112.5651,112.5651,113.5658,,,,,,0,0.5,,,,,,,,,0,25,25,38,1,,,,,,,,,,,,,,,,,,,,,,,,,,,,,,,,,,,,,,,,,,,,,,,,,,,,,,,,,,,,,,
,,,,,,,,Cascade,1,Female,Hispanic/Latino,NA,2024-12-05_10h35.23.204,dissOSARI,2023.2.3,Win32,59.88023952,,,,,,,,,,,,,,,,,,,,,,,,,,,,,,,,113.5669,114.6503,114.6503,115.6505,,,,,,0,0.5,,,,,,,,,0,26,26,19,1,,,,,,,,,,,,,,,,,,,,,,,,,,,,,,,,,,,,,,,,,,,,,,,,,,,,,,,,,,,,,,
,,,,,,,,Cascade,1,Female,Hispanic/Latino,NA,2024-12-05_10h35.23.204,dissOSARI,2023.2.3,Win32,59.88023952,,,,,,,,,,,,,,,,,,,,,,,,,,,,,,,,115.651,116.7352,116.7352,117.7354,,,,,,0,0.5,,,,,,,,,0,27,27,1,1,,,,,,,,,,,,,,,,,,,,,,,,,,,,,,,,,,,,,,,,,,,,,,,,,,,,,,,,,,,,,,
,,,,,,,,Cascade,1,Female,Hispanic/Latino,NA,2024-12-05_10h35.23.204,dissOSARI,2023.2.3,Win32,59.88023952,,,,,,,,,,,,,,,,,,,,,,,,,,,,,,,,117.7357,118.8535,118.8536,119.8532,,,,,,0,0.5,,,,,,,,,0,28,28,44,1,,,,,,,,,,,,,,,,,,,,,,,,,,,,,,,,,,,,,,,,,,,,,,,,,,,,,,,,,,,,,,
,,,,,,,,Cascade,1,Female,Hispanic/Latino,NA,2024-12-05_10h35.23.204,dissOSARI,2023.2.3,Win32,59.88023952,,,,,,,,,,,,,,,,,,,,,,,,,,,,,,,,119.8534,121.005,121.005,122.0053,,,,,,0,0.5,,,,,,,,,0,29,29,41,1,,,,,,,,,,,,,,,,,,,,,,,,,,,,,,,,,,,,,,,,,,,,,,,,,,,,,,,,,,,,,,
,,,,,,,,Cascade,1,Female,Hispanic/Latino,NA,2024-12-05_10h35.23.204,dissOSARI,2023.2.3,Win32,59.88023952,,,,,,,,,,,,,,,,,,,,,,,,,,,,,,,,122.0057,123.074,123.074,124.0743,,,,,,0,0.5,,,,,,,,,0,30,30,8,1,,,,,,,,,,,,,,,,,,,,,,,,,,,,,,,,,,,,,,,,,,,,,,,,,,,,,,,,,,,,,,
,,,,,,,,Cascade,1,Female,Hispanic/Latino,NA,2024-12-05_10h35.23.204,dissOSARI,2023.2.3,Win32,59.88023952,,,,,,,,,,,,,,,,,,,,,,,,,,,,,,,,124.0745,125.2751,125.2751,126.2759,,,,,,0,0.5,,,,,,,,,0,31,31,5,1,,,,,,,,,,,,,,,,,,,,,,,,,,,,,,,,,,,,,,,,,,,,,,,,,,,,,,,,,,,,,,
,,,,,,,,Cascade,1,Female,Hispanic/Latino,NA,2024-12-05_10h35.23.204,dissOSARI,2023.2.3,Win32,59.88023952,,,,,,,,,,,,,,,,,,,,,,,,,,,,,,,,126.2763,127.4612,127.4612,128.461,,,,,,0,0.5,,,,,,,,,0,32,32,10,1,,,,,,,,,,,,,,,,,,,,,,,,,,,,,,,,,,,,,,,,,,,,,,,,,,,,,,,,,,,,,,
,,,,,,,,Cascade,1,Female,Hispanic/Latino,NA,2024-12-05_10h35.23.204,dissOSARI,2023.2.3,Win32,59.88023952,,,,,,,,,,,,,,,,,,,,,,,,,,,,,,,,128.4614,129.479,129.479,130.4789,,,,,,0,0.5,,,,,,,,,0,33,33,43,1,,,,,,,,,,,,,,,,,,,,,,,,,,,,,,,,,,,,,,,,,,,,,,,,,,,,,,,,,,,,,,
,,,,,,,,Cascade,1,Female,Hispanic/Latino,NA,2024-12-05_10h35.23.204,dissOSARI,2023.2.3,Win32,59.88023952,,,,,,,,,,,,,,,,,,,,,,,,,,,,,,,,130.4793,131.5809,131.5809,132.5812,,,,,,0,0.5,,,,,,,,,0,34,34,7,1,,,,,,,,,,,,,,,,,,,,,,,,,,,,,,,,,,,,,,,,,,,,,,,,,,,,,,,,,,,,,,
,,,,,,,,Cascade,1,Female,Hispanic/Latino,NA,2024-12-05_10h35.23.204,dissOSARI,2023.2.3,Win32,59.88023952,,,,,,,,,,,,,,,,,,,,,,,,,,,,,,,,132.5817,133.4324,133.4324,134.4325,,,,,,0,0.5,,,,,,,,,0,35,35,42,1,,,,,,,,,,,,,,,,,,,,,,,,,,,,,,,,,,,,,,,,,,,,,,,,,,,,,,,,,,,,,,
,,,,,,,,Cascade,1,Female,Hispanic/Latino,NA,2024-12-05_10h35.23.204,dissOSARI,2023.2.3,Win32,59.88023952,,,,,,,,,,,,,,,,,,,,,,,,,,,,,,,,134.433,135.284,135.2841,136.2842,,,,,,0,0.5,,,,,,,,,0,36,36,3,1,,,,,,,,,,,,,,,,,,,,,,,,,,,,,,,,,,,,,,,,,,,,,,,,,,,,,,,,,,,,,,
,,,,,,,,Cascade,1,Female,Hispanic/Latino,NA,2024-12-05_10h35.23.204,dissOSARI,2023.2.3,Win32,59.88023952,,,,,,,,,,,,,,,,,,,,,,,,,,,,,,,,136.2847,137.0856,137.0856,138.0855,,,,,,0,0.5,,,,,,,,,0,37,37,49,1,,,,,,,,,,,,,,,,,,,,,,,,,,,,,,,,,,,,,,,,,,,,,,,,,,,,,,,,,,,,,,
,,,,,,,,Cascade,1,Female,Hispanic/Latino,NA,2024-12-05_10h35.23.204,dissOSARI,2023.2.3,Win32,59.88023952,,,,,,,,,,,,,,,,,,,,,,,,,,,,,,,,138.0859,138.9869,138.987,139.9869,,,,,,0,0.5,,,,,,,,,0,38,38,40,1,,,,,,,,,,,,,,,,,,,,,,,,,,,,,,,,,,,,,,,,,,,,,,,,,,,,,,,,,,,,,,
,,,,,,,,Cascade,1,Female,Hispanic/Latino,NA,2024-12-05_10h35.23.204,dissOSARI,2023.2.3,Win32,59.88023952,,,,,,,,,,,,,,,,,,,,,,,,,,,,,,,,139.9872,141.0387,141.0387,142.0389,,,,,,0,0.5,,,,,,,,,0,39,39,14,1,,,,,,,,,,,,,,,,,,,,,,,,,,,,,,,,,,,,,,,,,,,,,,,,,,,,,,,,,,,,,,
,,,,,,,,Cascade,1,Female,Hispanic/Latino,NA,2024-12-05_10h35.23.204,dissOSARI,2023.2.3,Win32,59.88023952,,,,,,,,,,,,,,,,,,,,,,,,,,,,,,,,142.0392,143.1905,143.1905,144.1907,,,,,,0,0.5,,,,,,,,,0,40,40,22,1,,,,,,,,,,,,,,,,,,,,,,,,,,,,,,,,,,,,,,,,,,,,,,,,,,,,,,,,,,,,,,
,,,,,,,,Cascade,1,Female,Hispanic/Latino,NA,2024-12-05_10h35.23.204,dissOSARI,2023.2.3,Win32,59.88023952,,,,,,,,,,,,,,,,,,,,,,,,,,,,,,,,144.191,145.3254,145.3255,146.3257,,,,,,0,0.5,,,,,,,,,0,41,41,25,1,,,,,,,,,,,,,,,,,,,,,,,,,,,,,,,,,,,,,,,,,,,,,,,,,,,,,,,,,,,,,,
,,,,,,,,Cascade,1,Female,Hispanic/Latino,NA,2024-12-05_10h35.23.204,dissOSARI,2023.2.3,Win32,59.88023952,,,,,,,,,,,,,,,,,,,,,,,,,,,,,,,,146.326,147.3436,147.3436,148.3439,,,,,,0,0.5,,,,,,,,,0,42,42,27,1,,,,,,,,,,,,,,,,,,,,,,,,,,,,,,,,,,,,,,,,,,,,,,,,,,,,,,,,,,,,,,
,,,,,,,,Cascade,1,Female,Hispanic/Latino,NA,2024-12-05_10h35.23.204,dissOSARI,2023.2.3,Win32,59.88023952,,,,,,,,,,,,,,,,,,,,,,,,,,,,,,,,148.3441,149.35,149.3501,150.3458,,,,,,0,0.5,,,,,,,,,0,43,43,35,1,,,,,,,,,,,,,,,,,,,,,,,,,,,,,,,,,,,,,,,,,,,,,,,,,,,,,,,,,,,,,,
,,,,,,,,Cascade,1,Female,Hispanic/Latino,NA,2024-12-05_10h35.23.204,dissOSARI,2023.2.3,Win32,59.88023952,,,,,,,,,,,,,,,,,,,,,,,,,,,,,,,,150.3464,151.4806,151.4806,152.4808,,,,,,0,0.5,,,,,,,,,0,44,44,34,1,,,,,,,,,,,,,,,,,,,,,,,,,,,,,,,,,,,,,,,,,,,,,,,,,,,,,,,,,,,,,,
,,,,,,,,Cascade,1,Female,Hispanic/Latino,NA,2024-12-05_10h35.23.204,dissOSARI,2023.2.3,Win32,59.88023952,,,,,,,,,,,,,,,,,,,,,,,,,,,,,,,,152.4815,153.6652,153.6652,154.6658,,,,,,0,0.5,,,,,,,,,0,45,45,17,1,,,,,,,,,,,,,,,,,,,,,,,,,,,,,,,,,,,,,,,,,,,,,,,,,,,,,,,,,,,,,,
,,,,,,,,Cascade,1,Female,Hispanic/Latino,NA,2024-12-05_10h35.23.204,dissOSARI,2023.2.3,Win32,59.88023952,,,,,,,,,,,,,,,,,,,,,,,,,,,,,,,,154.6663,155.7341,155.7342,156.7343,,,,,,0,0.5,,,,,,,,,0,46,46,26,1,,,,,,,,,,,,,,,,,,,,,,,,,,,,,,,,,,,,,,,,,,,,,,,,,,,,,,,,,,,,,,
,,,,,,,,Cascade,1,Female,Hispanic/Latino,NA,2024-12-05_10h35.23.204,dissOSARI,2023.2.3,Win32,59.88023952,,,,,,,,,,,,,,,,,,,,,,,,,,,,,,,,156.7346,157.919,157.919,158.9195,,,,,,0,0.5,,,,,,,,,0,47,47,48,1,,,,,,,,,,,,,,,,,,,,,,,,,,,,,,,,,,,,,,,,,,,,,,,,,,,,,,,,,,,,,,
,,,,,,,,Cascade,1,Female,Hispanic/Latino,NA,2024-12-05_10h35.23.204,dissOSARI,2023.2.3,Win32,59.88023952,,,,,,,,,,,,,,,,,,,,,,,,,,,,,,,,158.9198,160.0368,160.0369,161.0378,,,,,,0,0.5,,,,,,,,,0,48,48,12,1,,,,,,,,,,,,,,,,,,,,,,,,,,,,,,,,,,,,,,,,,,,,,,,,,,,,,,,,,,,,,,
,,,,,,,,Cascade,1,Female,Hispanic/Latino,NA,2024-12-05_10h35.23.204,dissOSARI,2023.2.3,Win32,59.88023952,,,,,,,,,,,,,,,,,,,,,,,,,,,,,,,,161.0382,162.1558,162.1559,163.1563,,,,,,0,0.5,,,,,,,,,0,49,49,0,1,,,,,,,,,,,,,,,,,,,,,,,,,,,,,,,,,,,,,,,,,,,,,,,,,,,,,,,,,,,,,,
,,,,,,,,Cascade,1,Female,Hispanic/Latino,NA,2024-12-05_10h35.23.204,dissOSARI,2023.2.3,Win32,59.88023952,,,,,,,,,,,,,,,,,,,,,,,,,,,,,,,,,,,,,,,,,,,,,,,,,,,,,,,,163.1566,174.1151,0.15156131,-0.357578065,1,0,0,10.1915,,,,,,,,,,,,,,,,,,,,,,,,,,,,,,,,,,,,,,,,,,,,,,,,,,,,,,
,,,,,,,,Cascade,1,Female,Hispanic/Latino,NA,2024-12-05_10h35.23.204,dissOSARI,2023.2.3,Win32,59.88023952,,,,,,,,,,,,,,,,,,,,,,,,,,,,,,,,,,,,,,,,,,,,,,,,,,,,,,,,,,,,,,,,174.1153,180.504,0.153084539,-0.359862909,1,0,0,6.1384,,,,,,,,,,,,,,,,,,,,,,,,,,,,,,,,,,,,,,,,,,,,,,
,,,,,,,,Cascade,1,Female,Hispanic/Latino,NA,2024-12-05_10h35.23.204,dissOSARI,2023.2.3,Win32,59.88023952,,,,,,,,,,,,,,,,,,,,,,,,,,,,,,,,,,,,,,,,,,,,,,,,,,,,,,,,,,,,,,,,,,,,,,,,180.5042,192.231,0.062452399,-0.29893374,1,0,0,11.46,,,,,,,,,,,,,,,,,,,,,,,,,,,,,,,,,,,,,,
,,,,,,,,Cascade,1,Female,Hispanic/Latino,NA,2024-12-05_10h35.23.204,dissOSARI,2023.2.3,Win32,59.88023952,,,,,,,,,,,,,,,,,,,,,,,,,,,,,,,,,,,,,,,,,,,,,,,,,,,,,,,,,,,,,,,,,,,,,,,,,,,,,,,,192.2313,193.0144,0.22239147,-0.349961919,1,0,0,0.5167,,,,,,,,,,,,,,,,,,,,,,,,,,,,,,
,,,,,,,,Cascade,1,Female,Hispanic/Latino,NA,2024-12-05_10h35.23.204,dissOSARI,2023.2.3,Win32,59.88023952,,,,,,,,,,,,,,,,,,,,,,,,,,,,,,,,193.016,194.6162,194.6162,195.6164,,,,,,0,0.5,,,,,,,,,,,,,,,,,,,,,,,,,,,,,,,,,,,,,,,,,,,,,,0,0,0,8,1,,,,,,,,,,,,,,,,,,,,,,,,,
,,,,,,,,Cascade,1,Female,Hispanic/Latino,NA,2024-12-05_10h35.23.204,dissOSARI,2023.2.3,Win32,59.88023952,,,,,,,,,,,,,,,,,,,,,,,,,,,,,,,,195.6167,196.818,196.818,197.8184,,,,,,0,0.5,,,,,,,,,,,,,,,,,,,,,,,,,,,,,,,,,,,,,,,,,,,,,,0,1,1,9,1,,,,,,,,,,,,,,,,,,,,,,,,,
,,,,,,,,Cascade,1,Female,Hispanic/Latino,NA,2024-12-05_10h35.23.204,dissOSARI,2023.2.3,Win32,59.88023952,,,,,,,,,,,,,,,,,,,,,,,,,,,,,,,,197.819,199.0701,199.0701,200.0699,,,,,,1,0.5,,,,,,,,,,,,,,,,,,,,,,,,,,,,,,,,,,,,,,,,,,,,,,0,2,2,3,1,,,,,,,,,,,,,,,,,,,,,,,,,
,,,,,,,,Cascade,1,Female,Hispanic/Latino,NA,2024-12-05_10h35.23.204,dissOSARI,2023.2.3,Win32,59.88023952,,,,,,,,,,,,,,,,,,,,,,,,,,,,,,,,200.0707,201.672,201.672,202.6726,,,,,,1,0.5,,,,,,,,,,,,,,,,,,,,,,,,,,,,,,,,,,,,,,,,,,,,,,0,3,3,4,1,,,,,,,,,,,,,,,,,,,,,,,,,
,,,,,,,,Cascade,1,Female,Hispanic/Latino,NA,2024-12-05_10h35.23.204,dissOSARI,2023.2.3,Win32,59.88023952,,,,,,,,,,,,,,,,,,,,,,,,,,,,,,,,202.6737,203.0233,203.0233,204.0232,,,,,,0,0.5,,,,,,,,,,,,,,,,,,,,,,,,,,,,,,,,,,,,,,,,,,,,,,0,4,4,6,1,,,,,,,,,,,,,,,,,,,,,,,,,
,,,,,,,,Cascade,1,Female,Hispanic/Latino,NA,2024-12-05_10h35.23.204,dissOSARI,2023.2.3,Win32,59.88023952,,,,,,,,,,,,,,,,,,,,,,,,,,,,,,,,204.0237,205.7254,205.7254,206.7256,,,,,,1,0.5,,,,,,,,,,,,,,,,,,,,,,,,,,,,,,,,,,,,,,,,,,,,,,0,5,5,0,1,,,,,,,,,,,,,,,,,,,,,,,,,
,,,,,,,,Cascade,1,Female,Hispanic/Latino,NA,2024-12-05_10h35.23.204,dissOSARI,2023.2.3,Win32,59.88023952,,,,,,,,,,,,,,,,,,,,,,,,,,,,,,,,206.726,208.5277,208.5278,209.528,,,,,,1,0.5,,,,,,,,,,,,,,,,,,,,,,,,,,,,,,,,,,,,,,,,,,,,,,0,6,6,1,1,,,,,,,,,,,,,,,,,,,,,,,,,
,,,,,,,,Cascade,1,Female,Hispanic/Latino,NA,2024-12-05_10h35.23.204,dissOSARI,2023.2.3,Win32,59.88023952,,,,,,,,,,,,,,,,,,,,,,,,,,,,,,,,209.5284,211.1133,211.1134,212.1133,,,,,,0,0.5,,,,,,,,,,,,,,,,,,,,,,,,,,,,,,,,,,,,,,,,,,,,,,0,7,7,5,1,,,,,,,,,,,,,,,,,,,,,,,,,
,,,,,,,,Cascade,1,Female,Hispanic/Latino,NA,2024-12-05_10h35.23.204,dissOSARI,2023.2.3,Win32,59.88023952,,,,,,,,,,,,,,,,,,,,,,,,,,,,,,,,212.1136,213.5488,213.5488,214.549,,,,,,0,0.5,,,,,,,,,,,,,,,,,,,,,,,,,,,,,,,,,,,,,,,,,,,,,,0,8,8,7,1,,,,,,,,,,,,,,,,,,,,,,,,,
,,,,,,,,Cascade,1,Female,Hispanic/Latino,NA,2024-12-05_10h35.23.204,dissOSARI,2023.2.3,Win32,59.88023952,,,,,,,,,,,,,,,,,,,,,,,,,,,,,,,,214.5503,214.7329,214.7329,215.7328,,,,,,1,0.5,,,,,,,,,,,,,,,,,,,,,,,,,,,,,,,,,,,,,,,,,,,,,,0,9,9,2,1,,,,,,,,,,,,,,,,,,,,,,,,,
,,,,,,,,Cascade,1,Female,Hispanic/Latino,NA,2024-12-05_10h35.23.204,dissOSARI,2023.2.3,Win32,59.88023952,,,,,,,,,,,,,,,,,,,,,,,,,,,,,,,,220.9734,222.6227,222.6227,223.6228,,,,,,0,0.5,,,,,,,,,,,,,,,,,,,,,,,,,,,,,,,,,,,,,,,,,,,,,,,,,,,215.7348,220.9711,0,0,0,14,1,,,,,,,,,,,,,,,,,,
,,,,,,,,Cascade,1,Female,Hispanic/Latino,NA,2024-12-05_10h35.23.204,dissOSARI,2023.2.3,Win32,59.88023952,,,,,,,,,,,,,,,,,,,,,,,,,,,,,,,,223.6233,225.9253,225.9253,226.9261,,,,,,1,0.5,,,,,,,,,,,,,,,,,,,,,,,,,,,,,,,,,,,,,,,,,,,,,,,,,,,,,0,1,1,78,1,,,,,,,,,,,,,,,,,,
,,,,,,,,Cascade,1,Female,Hispanic/Latino,NA,2024-12-05_10h35.23.204,dissOSARI,2023.2.3,Win32,59.88023952,,,,,,,,,,,,,,,,,,,,,,,,,,,,,,,,226.9271,229.028,229.0281,230.0276,,,,,,0,0.5,,,,,,,,,,,,,,,,,,,,,,,,,,,,,,,,,,,,,,,,,,,,,,,,,,,,,0,2,2,25,1,,,,,,,,,,,,,,,,,,
,,,,,,,,Cascade,1,Female,Hispanic/Latino,NA,2024-12-05_10h35.23.204,dissOSARI,2023.2.3,Win32,59.88023952,,,,,,,,,,,,,,,,,,,,,,,,,,,,,,,,230.0279,231.3133,231.3133,232.3132,,,,,,0,0.5,,,,,,,,,,,,,,,,,,,,,,,,,,,,,,,,,,,,,,,,,,,,,,,,,,,,,0,3,3,37,1,,,,,,,,,,,,,,,,,,
,,,,,,,,Cascade,1,Female,Hispanic/Latino,NA,2024-12-05_10h35.23.204,dissOSARI,2023.2.3,Win32,59.88023952,,,,,,,,,,,,,,,,,,,,,,,,,,,,,,,,232.3135,233.6481,233.6481,234.6488,,,,,,0,0.5,,,,,,,,,,,,,,,,,,,,,,,,,,,,,,,,,,,,,,,,,,,,,,,,,,,,,0,4,4,57,1,,,,,,,,,,,,,,,,,,
,,,,,,,,Cascade,1,Female,Hispanic/Latino,NA,2024-12-05_10h35.23.204,dissOSARI,2023.2.3,Win32,59.88023952,,,,,,,,,,,,,,,,,,,,,,,,,,,,,,,,234.6492,235.9169,235.917,236.9174,,,,,,0,0.5,,,,,,,,,,,,,,,,,,,,,,,,,,,,,,,,,,,,,,,,,,,,,,,,,,,,,0,5,5,7,1,,,,,,,,,,,,,,,,,,
,,,,,,,,Cascade,1,Female,Hispanic/Latino,NA,2024-12-05_10h35.23.204,dissOSARI,2023.2.3,Win32,59.88023952,,,,,,,,,,,,,,,,,,,,,,,,,,,,,,,,236.9182,238.0177,238.0178,239.0187,,,,,,0,0.5,,,,,,,,,,,,,,,,,,,,,,,,,,,,,,,,,,,,,,,,,,,,,,,,,,,,,0,6,6,39,1,,,,,,,,,,,,,,,,,,
,,,,,,,,Cascade,1,Female,Hispanic/Latino,NA,2024-12-05_10h35.23.204,dissOSARI,2023.2.3,Win32,59.88023952,,,,,,,,,,,,,,,,,,,,,,,,,,,,,,,,239.0194,240.1697,240.1698,241.1707,,,,,,0,0.5,,,,,,,,,,,,,,,,,,,,,,,,,,,,,,,,,,,,,,,,,,,,,,,,,,,,,0,7,7,9,1,,,,,,,,,,,,,,,,,,
,,,,,,,,Cascade,1,Female,Hispanic/Latino,NA,2024-12-05_10h35.23.204,dissOSARI,2023.2.3,Win32,59.88023952,,,,,,,,,,,,,,,,,,,,,,,,,,,,,,,,241.1712,242.4226,242.4226,243.4229,,,,,,0,0.5,,,,,,,,,,,,,,,,,,,,,,,,,,,,,,,,,,,,,,,,,,,,,,,,,,,,,0,8,8,13,1,,,,,,,,,,,,,,,,,,
,,,,,,,,Cascade,1,Female,Hispanic/Latino,NA,2024-12-05_10h35.23.204,dissOSARI,2023.2.3,Win32,59.88023952,,,,,,,,,,,,,,,,,,,,,,,,,,,,,,,,243.4236,244.724,244.724,245.7246,,,,,,1,0.5,,,,,,,,,,,,,,,,,,,,,,,,,,,,,,,,,,,,,,,,,,,,,,,,,,,,,0,9,9,69,1,,,,,,,,,,,,,,,,,,
,,,,,,,,Cascade,1,Female,Hispanic/Latino,NA,2024-12-05_10h35.23.204,dissOSARI,2023.2.3,Win32,59.88023952,,,,,,,,,,,,,,,,,,,,,,,,,,,,,,,,245.7253,247.2596,247.2597,248.26,,,,,,0,0.5,,,,,,,,,,,,,,,,,,,,,,,,,,,,,,,,,,,,,,,,,,,,,,,,,,,,,0,10,10,38,1,,,,,,,,,,,,,,,,,,
,,,,,,,,Cascade,1,Female,Hispanic/Latino,NA,2024-12-05_10h35.23.204,dissOSARI,2023.2.3,Win32,59.88023952,,,,,,,,,,,,,,,,,,,,,,,,,,,,,,,,248.2604,249.5614,249.5614,250.5616,,,,,,0,0.5,,,,,,,,,,,,,,,,,,,,,,,,,,,,,,,,,,,,,,,,,,,,,,,,,,,,,0,11,11,20,1,,,,,,,,,,,,,,,,,,
,,,,,,,,Cascade,1,Female,Hispanic/Latino,NA,2024-12-05_10h35.23.204,dissOSARI,2023.2.3,Win32,59.88023952,,,,,,,,,,,,,,,,,,,,,,,,,,,,,,,,250.5621,251.6804,251.6804,252.6805,,,,,,1,0.5,,,,,,,,,,,,,,,,,,,,,,,,,,,,,,,,,,,,,,,,,,,,,,,,,,,,,0,12,12,75,1,,,,,,,,,,,,,,,,,,
,,,,,,,,Cascade,1,Female,Hispanic/Latino,NA,2024-12-05_10h35.23.204,dissOSARI,2023.2.3,Win32,59.88023952,,,,,,,,,,,,,,,,,,,,,,,,,,,,,,,,252.6811,254.1823,254.1823,255.182,,,,,,0,0.5,,,,,,,,,,,,,,,,,,,,,,,,,,,,,,,,,,,,,,,,,,,,,,,,,,,,,0,13,13,58,1,,,,,,,,,,,,,,,,,,
,,,,,,,,Cascade,1,Female,Hispanic/Latino,NA,2024-12-05_10h35.23.204,dissOSARI,2023.2.3,Win32,59.88023952,,,,,,,,,,,,,,,,,,,,,,,,,,,,,,,,255.1825,256.3506,256.3506,257.3509,,,,,,0,0.5,,,,,,,,,,,,,,,,,,,,,,,,,,,,,,,,,,,,,,,,,,,,,,,,,,,,,0,14,14,24,1,,,,,,,,,,,,,,,,,,
,,,,,,,,Cascade,1,Female,Hispanic/Latino,NA,2024-12-05_10h35.23.204,dissOSARI,2023.2.3,Win32,59.88023952,,,,,,,,,,,,,,,,,,,,,,,,,,,,,,,,257.3514,258.4857,258.4858,259.486,,,,,,0,0.5,,,,,,,,,,,,,,,,,,,,,,,,,,,,,,,,,,,,,,,,,,,,,,,,,,,,,0,15,15,34,1,,,,,,,,,,,,,,,,,,
,,,,,,,,Cascade,1,Female,Hispanic/Latino,NA,2024-12-05_10h35.23.204,dissOSARI,2023.2.3,Win32,59.88023952,,,,,,,,,,,,,,,,,,,,,,,,,,,,,,,,259.487,260.9544,260.9544,261.9545,,,,,,1,0.5,,,,,,,,,,,,,,,,,,,,,,,,,,,,,,,,,,,,,,,,,,,,,,,,,,,,,0,16,16,60,1,,,,,,,,,,,,,,,,,,
,,,,,,,,Cascade,1,Female,Hispanic/Latino,NA,2024-12-05_10h35.23.204,dissOSARI,2023.2.3,Win32,59.88023952,,,,,,,,,,,,,,,,,,,,,,,,,,,,,,,,261.955,264.0732,264.0732,265.0739,,,,,,0,0.5,,,,,,,,,,,,,,,,,,,,,,,,,,,,,,,,,,,,,,,,,,,,,,,,,,,,,0,17,17,23,1,,,,,,,,,,,,,,,,,,
,,,,,,,,Cascade,1,Female,Hispanic/Latino,NA,2024-12-05_10h35.23.204,dissOSARI,2023.2.3,Win32,59.88023952,,,,,,,,,,,,,,,,,,,,,,,,,,,,,,,,265.0743,266.1757,266.1757,267.1758,,,,,,0,0.5,,,,,,,,,,,,,,,,,,,,,,,,,,,,,,,,,,,,,,,,,,,,,,,,,,,,,0,18,18,18,1,,,,,,,,,,,,,,,,,,
,,,,,,,,Cascade,1,Female,Hispanic/Latino,NA,2024-12-05_10h35.23.204,dissOSARI,2023.2.3,Win32,59.88023952,,,,,,,,,,,,,,,,,,,,,,,,,,,,,,,,267.1762,268.2104,268.2105,269.2108,,,,,,0,0.5,,,,,,,,,,,,,,,,,,,,,,,,,,,,,,,,,,,,,,,,,,,,,,,,,,,,,0,19,19,8,1,,,,,,,,,,,,,,,,,,
,,,,,,,,Cascade,1,Female,Hispanic/Latino,NA,2024-12-05_10h35.23.204,dissOSARI,2023.2.3,Win32,59.88023952,,,,,,,,,,,,,,,,,,,,,,,,,,,,,,,,269.2111,270.2622,270.2622,271.2619,,,,,,0,0.5,,,,,,,,,,,,,,,,,,,,,,,,,,,,,,,,,,,,,,,,,,,,,,,,,,,,,0,20,20,35,1,,,,,,,,,,,,,,,,,,
,,,,,,,,Cascade,1,Female,Hispanic/Latino,NA,2024-12-05_10h35.23.204,dissOSARI,2023.2.3,Win32,59.88023952,,,,,,,,,,,,,,,,,,,,,,,,,,,,,,,,271.2622,272.3801,272.3801,273.3806,,,,,,0,0.5,,,,,,,,,,,,,,,,,,,,,,,,,,,,,,,,,,,,,,,,,,,,,,,,,,,,,0,21,21,5,1,,,,,,,,,,,,,,,,,,
,,,,,,,,Cascade,1,Female,Hispanic/Latino,NA,2024-12-05_10h35.23.204,dissOSARI,2023.2.3,Win32,59.88023952,,,,,,,,,,,,,,,,,,,,,,,,,,,,,,,,273.3813,274.349,274.349,275.3492,,,,,,0,0.5,,,,,,,,,,,,,,,,,,,,,,,,,,,,,,,,,,,,,,,,,,,,,,,,,,,,,0,22,22,26,1,,,,,,,,,,,,,,,,,,
,,,,,,,,Cascade,1,Female,Hispanic/Latino,NA,2024-12-05_10h35.23.204,dissOSARI,2023.2.3,Win32,59.88023952,,,,,,,,,,,,,,,,,,,,,,,,,,,,,,,,275.3502,276.6338,276.6338,277.6341,,,,,,1,0.5,,,,,,,,,,,,,,,,,,,,,,,,,,,,,,,,,,,,,,,,,,,,,,,,,,,,,0,23,23,66,1,,,,,,,,,,,,,,,,,,
,,,,,,,,Cascade,1,Female,Hispanic/Latino,NA,2024-12-05_10h35.23.204,dissOSARI,2023.2.3,Win32,59.88023952,,,,,,,,,,,,,,,,,,,,,,,,,,,,,,,,277.6346,279.0362,279.0362,280.0356,,,,,,0,0.5,,,,,,,,,,,,,,,,,,,,,,,,,,,,,,,,,,,,,,,,,,,,,,,,,,,,,0,24,24,53,1,,,,,,,,,,,,,,,,,,
,,,,,,,,Cascade,1,Female,Hispanic/Latino,NA,2024-12-05_10h35.23.204,dissOSARI,2023.2.3,Win32,59.88023952,,,,,,,,,,,,,,,,,,,,,,,,,,,,,,,,280.0358,281.1544,281.1544,282.1542,,,,,,0,0.5,,,,,,,,,,,,,,,,,,,,,,,,,,,,,,,,,,,,,,,,,,,,,,,,,,,,,0,25,25,47,1,,,,,,,,,,,,,,,,,,
,,,,,,,,Cascade,1,Female,Hispanic/Latino,NA,2024-12-05_10h35.23.204,dissOSARI,2023.2.3,Win32,59.88023952,,,,,,,,,,,,,,,,,,,,,,,,,,,,,,,,282.1544,283.3563,283.3563,284.3563,,,,,,0,0.5,,,,,,,,,,,,,,,,,,,,,,,,,,,,,,,,,,,,,,,,,,,,,,,,,,,,,0,26,26,46,1,,,,,,,,,,,,,,,,,,
,,,,,,,,Cascade,1,Female,Hispanic/Latino,NA,2024-12-05_10h35.23.204,dissOSARI,2023.2.3,Win32,59.88023952,,,,,,,,,,,,,,,,,,,,,,,,,,,,,,,,284.3568,285.6083,285.6083,286.6084,,,,,,1,0.5,,,,,,,,,,,,,,,,,,,,,,,,,,,,,,,,,,,,,,,,,,,,,,,,,,,,,0,27,27,68,1,,,,,,,,,,,,,,,,,,
,,,,,,,,Cascade,1,Female,Hispanic/Latino,NA,2024-12-05_10h35.23.204,dissOSARI,2023.2.3,Win32,59.88023952,,,,,,,,,,,,,,,,,,,,,,,,,,,,,,,,286.6089,287.7765,287.7765,288.7766,,,,,,0,0.5,,,,,,,,,,,,,,,,,,,,,,,,,,,,,,,,,,,,,,,,,,,,,,,,,,,,,0,28,28,21,1,,,,,,,,,,,,,,,,,,
,,,,,,,,Cascade,1,Female,Hispanic/Latino,NA,2024-12-05_10h35.23.204,dissOSARI,2023.2.3,Win32,59.88023952,,,,,,,,,,,,,,,,,,,,,,,,,,,,,,,,288.777,289.9109,289.911,290.9118,,,,,,0,0.5,,,,,,,,,,,,,,,,,,,,,,,,,,,,,,,,,,,,,,,,,,,,,,,,,,,,,0,29,29,55,1,,,,,,,,,,,,,,,,,,
,,,,,,,,Cascade,1,Female,Hispanic/Latino,NA,2024-12-05_10h35.23.204,dissOSARI,2023.2.3,Win32,59.88023952,,,,,,,,,,,,,,,,,,,,,,,,,,,,,,,,290.9122,292.0302,292.0302,293.0303,,,,,,0,0.5,,,,,,,,,,,,,,,,,,,,,,,,,,,,,,,,,,,,,,,,,,,,,,,,,,,,,0,30,30,52,1,,,,,,,,,,,,,,,,,,
,,,,,,,,Cascade,1,Female,Hispanic/Latino,NA,2024-12-05_10h35.23.204,dissOSARI,2023.2.3,Win32,59.88023952,,,,,,,,,,,,,,,,,,,,,,,,,,,,,,,,293.0307,294.3657,294.3658,295.3656,,,,,,1,0.5,,,,,,,,,,,,,,,,,,,,,,,,,,,,,,,,,,,,,,,,,,,,,,,,,,,,,0,31,31,70,1,,,,,,,,,,,,,,,,,,
,,,,,,,,Cascade,1,Female,Hispanic/Latino,NA,2024-12-05_10h35.23.204,dissOSARI,2023.2.3,Win32,59.88023952,,,,,,,,,,,,,,,,,,,,,,,,,,,,,,,,295.366,296.7508,296.7509,297.7508,,,,,,1,0.5,,,,,,,,,,,,,,,,,,,,,,,,,,,,,,,,,,,,,,,,,,,,,,,,,,,,,0,32,32,63,1,,,,,,,,,,,,,,,,,,
,,,,,,,,Cascade,1,Female,Hispanic/Latino,NA,2024-12-05_10h35.23.204,dissOSARI,2023.2.3,Win32,59.88023952,,,,,,,,,,,,,,,,,,,,,,,,,,,,,,,,297.7514,298.9193,298.9193,299.919,,,,,,0,0.5,,,,,,,,,,,,,,,,,,,,,,,,,,,,,,,,,,,,,,,,,,,,,,,,,,,,,0,33,33,3,1,,,,,,,,,,,,,,,,,,
,,,,,,,,Cascade,1,Female,Hispanic/Latino,NA,2024-12-05_10h35.23.204,dissOSARI,2023.2.3,Win32,59.88023952,,,,,,,,,,,,,,,,,,,,,,,,,,,,,,,,299.9191,301.2049,301.205,302.2045,,,,,,1,0.5,,,,,,,,,,,,,,,,,,,,,,,,,,,,,,,,,,,,,,,,,,,,,,,,,,,,,0,34,34,76,1,,,,,,,,,,,,,,,,,,
,,,,,,,,Cascade,1,Female,Hispanic/Latino,NA,2024-12-05_10h35.23.204,dissOSARI,2023.2.3,Win32,59.88023952,,,,,,,,,,,,,,,,,,,,,,,,,,,,,,,,302.2048,303.3062,303.3062,304.3062,,,,,,0,0.5,,,,,,,,,,,,,,,,,,,,,,,,,,,,,,,,,,,,,,,,,,,,,,,,,,,,,0,35,35,2,1,,,,,,,,,,,,,,,,,,
,,,,,,,,Cascade,1,Female,Hispanic/Latino,NA,2024-12-05_10h35.23.204,dissOSARI,2023.2.3,Win32,59.88023952,,,,,,,,,,,,,,,,,,,,,,,,,,,,,,,,304.3068,305.4245,305.4245,306.425,,,,,,0,0.5,,,,,,,,,,,,,,,,,,,,,,,,,,,,,,,,,,,,,,,,,,,,,,,,,,,,,0,36,36,27,1,,,,,,,,,,,,,,,,,,
,,,,,,,,Cascade,1,Female,Hispanic/Latino,NA,2024-12-05_10h35.23.204,dissOSARI,2023.2.3,Win32,59.88023952,,,,,,,,,,,,,,,,,,,,,,,,,,,,,,,,306.4257,307.7931,307.7931,308.7933,,,,,,1,0.5,,,,,,,,,,,,,,,,,,,,,,,,,,,,,,,,,,,,,,,,,,,,,,,,,,,,,0,37,37,64,1,,,,,,,,,,,,,,,,,,
,,,,,,,,Cascade,1,Female,Hispanic/Latino,NA,2024-12-05_10h35.23.204,dissOSARI,2023.2.3,Win32,59.88023952,,,,,,,,,,,,,,,,,,,,,,,,,,,,,,,,308.7937,309.9776,309.9776,310.9783,,,,,,0,0.5,,,,,,,,,,,,,,,,,,,,,,,,,,,,,,,,,,,,,,,,,,,,,,,,,,,,,0,38,38,33,1,,,,,,,,,,,,,,,,,,
,,,,,,,,Cascade,1,Female,Hispanic/Latino,NA,2024-12-05_10h35.23.204,dissOSARI,2023.2.3,Win32,59.88023952,,,,,,,,,,,,,,,,,,,,,,,,,,,,,,,,310.9785,311.9633,311.9633,312.9631,,,,,,0,0.5,,,,,,,,,,,,,,,,,,,,,,,,,,,,,,,,,,,,,,,,,,,,,,,,,,,,,0,39,39,22,1,,,,,,,,,,,,,,,,,,
,,,,,,,,Cascade,1,Female,Hispanic/Latino,NA,2024-12-05_10h35.23.204,dissOSARI,2023.2.3,Win32,59.88023952,,,,,,,,,,,,,,,,,,,,,,,,,,,,,,,,312.9634,314.064,314.064,315.0656,,,,,,0,0.5,,,,,,,,,,,,,,,,,,,,,,,,,,,,,,,,,,,,,,,,,,,,,,,,,,,,,0,40,40,28,1,,,,,,,,,,,,,,,,,,
,,,,,,,,Cascade,1,Female,Hispanic/Latino,NA,2024-12-05_10h35.23.204,dissOSARI,2023.2.3,Win32,59.88023952,,,,,,,,,,,,,,,,,,,,,,,,,,,,,,,,315.0658,316.3667,316.3667,317.367,,,,,,1,0.5,,,,,,,,,,,,,,,,,,,,,,,,,,,,,,,,,,,,,,,,,,,,,,,,,,,,,0,41,41,73,1,,,,,,,,,,,,,,,,,,
,,,,,,,,Cascade,1,Female,Hispanic/Latino,NA,2024-12-05_10h35.23.204,dissOSARI,2023.2.3,Win32,59.88023952,,,,,,,,,,,,,,,,,,,,,,,,,,,,,,,,317.3674,318.5354,318.5355,319.5356,,,,,,0,0.5,,,,,,,,,,,,,,,,,,,,,,,,,,,,,,,,,,,,,,,,,,,,,,,,,,,,,0,42,42,59,1,,,,,,,,,,,,,,,,,,
,,,,,,,,Cascade,1,Female,Hispanic/Latino,NA,2024-12-05_10h35.23.204,dissOSARI,2023.2.3,Win32,59.88023952,,,,,,,,,,,,,,,,,,,,,,,,,,,,,,,,319.5359,320.8706,320.8706,321.871,,,,,,1,0.5,,,,,,,,,,,,,,,,,,,,,,,,,,,,,,,,,,,,,,,,,,,,,,,,,,,,,0,43,43,77,1,,,,,,,,,,,,,,,,,,
,,,,,,,,Cascade,1,Female,Hispanic/Latino,NA,2024-12-05_10h35.23.204,dissOSARI,2023.2.3,Win32,59.88023952,,,,,,,,,,,,,,,,,,,,,,,,,,,,,,,,321.8716,322.9559,322.9559,323.9559,,,,,,0,0.5,,,,,,,,,,,,,,,,,,,,,,,,,,,,,,,,,,,,,,,,,,,,,,,,,,,,,0,44,44,15,1,,,,,,,,,,,,,,,,,,
,,,,,,,,Cascade,1,Female,Hispanic/Latino,NA,2024-12-05_10h35.23.204,dissOSARI,2023.2.3,Win32,59.88023952,,,,,,,,,,,,,,,,,,,,,,,,,,,,,,,,323.9563,325.0569,325.0569,326.0575,,,,,,0,0.5,,,,,,,,,,,,,,,,,,,,,,,,,,,,,,,,,,,,,,,,,,,,,,,,,,,,,0,45,45,48,1,,,,,,,,,,,,,,,,,,
,,,,,,,,Cascade,1,Female,Hispanic/Latino,NA,2024-12-05_10h35.23.204,dissOSARI,2023.2.3,Win32,59.88023952,,,,,,,,,,,,,,,,,,,,,,,,,,,,,,,,326.0579,327.1927,327.1927,328.1928,,,,,,0,0.5,,,,,,,,,,,,,,,,,,,,,,,,,,,,,,,,,,,,,,,,,,,,,,,,,,,,,0,46,46,45,1,,,,,,,,,,,,,,,,,,
,,,,,,,,Cascade,1,Female,Hispanic/Latino,NA,2024-12-05_10h35.23.204,dissOSARI,2023.2.3,Win32,59.88023952,,,,,,,,,,,,,,,,,,,,,,,,,,,,,,,,328.1937,329.4941,329.4942,330.495,,,,,,1,0.5,,,,,,,,,,,,,,,,,,,,,,,,,,,,,,,,,,,,,,,,,,,,,,,,,,,,,0,47,47,61,1,,,,,,,,,,,,,,,,,,
,,,,,,,,Cascade,1,Female,Hispanic/Latino,NA,2024-12-05_10h35.23.204,dissOSARI,2023.2.3,Win32,59.88023952,,,,,,,,,,,,,,,,,,,,,,,,,,,,,,,,330.4958,331.7295,331.7295,332.7298,,,,,,0,0.5,,,,,,,,,,,,,,,,,,,,,,,,,,,,,,,,,,,,,,,,,,,,,,,,,,,,,0,48,48,4,1,,,,,,,,,,,,,,,,,,
,,,,,,,,Cascade,1,Female,Hispanic/Latino,NA,2024-12-05_10h35.23.204,dissOSARI,2023.2.3,Win32,59.88023952,,,,,,,,,,,,,,,,,,,,,,,,,,,,,,,,332.7301,333.7144,333.7145,334.7145,,,,,,0,0.5,,,,,,,,,,,,,,,,,,,,,,,,,,,,,,,,,,,,,,,,,,,,,,,,,,,,,0,49,49,36,1,,,,,,,,,,,,,,,,,,
,,,,,,,,Cascade,1,Female,Hispanic/Latino,NA,2024-12-05_10h35.23.204,dissOSARI,2023.2.3,Win32,59.88023952,,,,,,,,,,,,,,,,,,,,,,,,,,,,,,,,334.7151,335.9499,335.9499,336.9494,,,,,,1,0.5,,,,,,,,,,,,,,,,,,,,,,,,,,,,,,,,,,,,,,,,,,,,,,,,,,,,,0,50,50,67,1,,,,,,,,,,,,,,,,,,
,,,,,,,,Cascade,1,Female,Hispanic/Latino,NA,2024-12-05_10h35.23.204,dissOSARI,2023.2.3,Win32,59.88023952,,,,,,,,,,,,,,,,,,,,,,,,,,,,,,,,336.9497,338.0682,338.0682,339.0682,,,,,,0,0.5,,,,,,,,,,,,,,,,,,,,,,,,,,,,,,,,,,,,,,,,,,,,,,,,,,,,,0,51,51,10,1,,,,,,,,,,,,,,,,,,
,,,,,,,,Cascade,1,Female,Hispanic/Latino,NA,2024-12-05_10h35.23.204,dissOSARI,2023.2.3,Win32,59.88023952,,,,,,,,,,,,,,,,,,,,,,,,,,,,,,,,339.0689,340.3868,340.3868,341.3871,,,,,,1,0.5,,,,,,,,,,,,,,,,,,,,,,,,,,,,,,,,,,,,,,,,,,,,,,,,,,,,,0,52,52,62,1,,,,,,,,,,,,,,,,,,
,,,,,,,,Cascade,1,Female,Hispanic/Latino,NA,2024-12-05_10h35.23.204,dissOSARI,2023.2.3,Win32,59.88023952,,,,,,,,,,,,,,,,,,,,,,,,,,,,,,,,341.3875,342.5052,342.5052,343.5052,,,,,,0,0.5,,,,,,,,,,,,,,,,,,,,,,,,,,,,,,,,,,,,,,,,,,,,,,,,,,,,,0,53,53,17,1,,,,,,,,,,,,,,,,,,
,,,,,,,,Cascade,1,Female,Hispanic/Latino,NA,2024-12-05_10h35.23.204,dissOSARI,2023.2.3,Win32,59.88023952,,,,,,,,,,,,,,,,,,,,,,,,,,,,,,,,343.5056,344.4731,344.4732,345.4739,,,,,,0,0.5,,,,,,,,,,,,,,,,,,,,,,,,,,,,,,,,,,,,,,,,,,,,,,,,,,,,,0,54,54,6,1,,,,,,,,,,,,,,,,,,
,,,,,,,,Cascade,1,Female,Hispanic/Latino,NA,2024-12-05_10h35.23.204,dissOSARI,2023.2.3,Win32,59.88023952,,,,,,,,,,,,,,,,,,,,,,,,,,,,,,,,345.4751,346.4251,346.4252,347.4254,,,,,,0,0.5,,,,,,,,,,,,,,,,,,,,,,,,,,,,,,,,,,,,,,,,,,,,,,,,,,,,,0,55,55,31,1,,,,,,,,,,,,,,,,,,
,,,,,,,,Cascade,1,Female,Hispanic/Latino,NA,2024-12-05_10h35.23.204,dissOSARI,2023.2.3,Win32,59.88023952,,,,,,,,,,,,,,,,,,,,,,,,,,,,,,,,347.4259,348.2766,348.2766,349.2782,,,,,,0,0.5,,,,,,,,,,,,,,,,,,,,,,,,,,,,,,,,,,,,,,,,,,,,,,,,,,,,,0,56,56,19,1,,,,,,,,,,,,,,,,,,
,,,,,,,,Cascade,1,Female,Hispanic/Latino,NA,2024-12-05_10h35.23.204,dissOSARI,2023.2.3,Win32,59.88023952,,,,,,,,,,,,,,,,,,,,,,,,,,,,,,,,349.2786,350.2952,350.2952,351.2954,,,,,,0,0.5,,,,,,,,,,,,,,,,,,,,,,,,,,,,,,,,,,,,,,,,,,,,,,,,,,,,,0,57,57,49,1,,,,,,,,,,,,,,,,,,
,,,,,,,,Cascade,1,Female,Hispanic/Latino,NA,2024-12-05_10h35.23.204,dissOSARI,2023.2.3,Win32,59.88023952,,,,,,,,,,,,,,,,,,,,,,,,,,,,,,,,351.2962,352.3967,352.3968,353.3969,,,,,,0,0.5,,,,,,,,,,,,,,,,,,,,,,,,,,,,,,,,,,,,,,,,,,,,,,,,,,,,,0,58,58,16,1,,,,,,,,,,,,,,,,,,
,,,,,,,,Cascade,1,Female,Hispanic/Latino,NA,2024-12-05_10h35.23.204,dissOSARI,2023.2.3,Win32,59.88023952,,,,,,,,,,,,,,,,,,,,,,,,,,,,,,,,353.3973,354.3985,354.3985,355.3986,,,,,,0,0.5,,,,,,,,,,,,,,,,,,,,,,,,,,,,,,,,,,,,,,,,,,,,,,,,,,,,,0,59,59,44,1,,,,,,,,,,,,,,,,,,
,,,,,,,,Cascade,1,Female,Hispanic/Latino,NA,2024-12-05_10h35.23.204,dissOSARI,2023.2.3,Win32,59.88023952,,,,,,,,,,,,,,,,,,,,,,,,,,,,,,,,355.3991,356.7169,356.717,357.7171,,,,,,1,0.5,,,,,,,,,,,,,,,,,,,,,,,,,,,,,,,,,,,,,,,,,,,,,,,,,,,,,0,60,60,71,1,,,,,,,,,,,,,,,,,,
,,,,,,,,Cascade,1,Female,Hispanic/Latino,NA,2024-12-05_10h35.23.204,dissOSARI,2023.2.3,Win32,59.88023952,,,,,,,,,,,,,,,,,,,,,,,,,,,,,,,,357.7176,358.9181,358.9182,359.9185,,,,,,0,0.5,,,,,,,,,,,,,,,,,,,,,,,,,,,,,,,,,,,,,,,,,,,,,,,,,,,,,0,61,61,0,1,,,,,,,,,,,,,,,,,,
,,,,,,,,Cascade,1,Female,Hispanic/Latino,NA,2024-12-05_10h35.23.204,dissOSARI,2023.2.3,Win32,59.88023952,,,,,,,,,,,,,,,,,,,,,,,,,,,,,,,,359.9189,361.1706,361.1706,362.1707,,,,,,1,0.5,,,,,,,,,,,,,,,,,,,,,,,,,,,,,,,,,,,,,,,,,,,,,,,,,,,,,0,62,62,65,1,,,,,,,,,,,,,,,,,,
,,,,,,,,Cascade,1,Female,Hispanic/Latino,NA,2024-12-05_10h35.23.204,dissOSARI,2023.2.3,Win32,59.88023952,,,,,,,,,,,,,,,,,,,,,,,,,,,,,,,,362.1713,363.239,363.239,364.2396,,,,,,0,0.5,,,,,,,,,,,,,,,,,,,,,,,,,,,,,,,,,,,,,,,,,,,,,,,,,,,,,0,63,63,40,1,,,,,,,,,,,,,,,,,,
,,,,,,,,Cascade,1,Female,Hispanic/Latino,NA,2024-12-05_10h35.23.204,dissOSARI,2023.2.3,Win32,59.88023952,,,,,,,,,,,,,,,,,,,,,,,,,,,,,,,,364.24,365.3075,365.3075,366.3075,,,,,,0,0.5,,,,,,,,,,,,,,,,,,,,,,,,,,,,,,,,,,,,,,,,,,,,,,,,,,,,,0,64,64,50,1,,,,,,,,,,,,,,,,,,
,,,,,,,,Cascade,1,Female,Hispanic/Latino,NA,2024-12-05_10h35.23.204,dissOSARI,2023.2.3,Win32,59.88023952,,,,,,,,,,,,,,,,,,,,,,,,,,,,,,,,366.308,367.409,367.409,368.4095,,,,,,0,0.5,,,,,,,,,,,,,,,,,,,,,,,,,,,,,,,,,,,,,,,,,,,,,,,,,,,,,0,65,65,1,1,,,,,,,,,,,,,,,,,,
,,,,,,,,Cascade,1,Female,Hispanic/Latino,NA,2024-12-05_10h35.23.204,dissOSARI,2023.2.3,Win32,59.88023952,,,,,,,,,,,,,,,,,,,,,,,,,,,,,,,,368.4102,369.5277,369.5277,370.5279,,,,,,0,0.5,,,,,,,,,,,,,,,,,,,,,,,,,,,,,,,,,,,,,,,,,,,,,,,,,,,,,0,66,66,43,1,,,,,,,,,,,,,,,,,,
,,,,,,,,Cascade,1,Female,Hispanic/Latino,NA,2024-12-05_10h35.23.204,dissOSARI,2023.2.3,Win32,59.88023952,,,,,,,,,,,,,,,,,,,,,,,,,,,,,,,,370.5284,371.696,371.6961,372.6966,,,,,,0,0.5,,,,,,,,,,,,,,,,,,,,,,,,,,,,,,,,,,,,,,,,,,,,,,,,,,,,,0,67,67,11,1,,,,,,,,,,,,,,,,,,
,,,,,,,,Cascade,1,Female,Hispanic/Latino,NA,2024-12-05_10h35.23.204,dissOSARI,2023.2.3,Win32,59.88023952,,,,,,,,,,,,,,,,,,,,,,,,,,,,,,,,372.6972,373.7978,373.7978,374.7981,,,,,,1,0.5,,,,,,,,,,,,,,,,,,,,,,,,,,,,,,,,,,,,,,,,,,,,,,,,,,,,,0,68,68,74,1,,,,,,,,,,,,,,,,,,
,,,,,,,,Cascade,1,Female,Hispanic/Latino,NA,2024-12-05_10h35.23.204,dissOSARI,2023.2.3,Win32,59.88023952,,,,,,,,,,,,,,,,,,,,,,,,,,,,,,,,374.7988,376.0163,376.0163,377.0164,,,,,,0,0.5,,,,,,,,,,,,,,,,,,,,,,,,,,,,,,,,,,,,,,,,,,,,,,,,,,,,,0,69,69,12,1,,,,,,,,,,,,,,,,,,
,,,,,,,,Cascade,1,Female,Hispanic/Latino,NA,2024-12-05_10h35.23.204,dissOSARI,2023.2.3,Win32,59.88023952,,,,,,,,,,,,,,,,,,,,,,,,,,,,,,,,377.0171,378.0678,378.0678,379.0679,,,,,,0,0.5,,,,,,,,,,,,,,,,,,,,,,,,,,,,,,,,,,,,,,,,,,,,,,,,,,,,,0,70,70,51,1,,,,,,,,,,,,,,,,,,
,,,,,,,,Cascade,1,Female,Hispanic/Latino,NA,2024-12-05_10h35.23.204,dissOSARI,2023.2.3,Win32,59.88023952,,,,,,,,,,,,,,,,,,,,,,,,,,,,,,,,379.0683,380.0688,380.0688,381.07,,,,,,0,0.5,,,,,,,,,,,,,,,,,,,,,,,,,,,,,,,,,,,,,,,,,,,,,,,,,,,,,0,71,71,29,1,,,,,,,,,,,,,,,,,,
,,,,,,,,Cascade,1,Female,Hispanic/Latino,NA,2024-12-05_10h35.23.204,dissOSARI,2023.2.3,Win32,59.88023952,,,,,,,,,,,,,,,,,,,,,,,,,,,,,,,,381.0708,382.2383,382.2383,383.2382,,,,,,0,0.5,,,,,,,,,,,,,,,,,,,,,,,,,,,,,,,,,,,,,,,,,,,,,,,,,,,,,0,72,72,30,1,,,,,,,,,,,,,,,,,,
,,,,,,,,Cascade,1,Female,Hispanic/Latino,NA,2024-12-05_10h35.23.204,dissOSARI,2023.2.3,Win32,59.88023952,,,,,,,,,,,,,,,,,,,,,,,,,,,,,,,,383.2389,384.4232,384.4232,385.423,,,,,,1,0.5,,,,,,,,,,,,,,,,,,,,,,,,,,,,,,,,,,,,,,,,,,,,,,,,,,,,,0,73,73,72,1,,,,,,,,,,,,,,,,,,
,,,,,,,,Cascade,1,Female,Hispanic/Latino,NA,2024-12-05_10h35.23.204,dissOSARI,2023.2.3,Win32,59.88023952,,,,,,,,,,,,,,,,,,,,,,,,,,,,,,,,385.4232,386.9919,386.9919,387.9924,,,,,,0,0.5,,,,,,,,,,,,,,,,,,,,,,,,,,,,,,,,,,,,,,,,,,,,,,,,,,,,,0,74,74,32,1,,,,,,,,,,,,,,,,,,
,,,,,,,,Cascade,1,Female,Hispanic/Latino,NA,2024-12-05_10h35.23.204,dissOSARI,2023.2.3,Win32,59.88023952,,,,,,,,,,,,,,,,,,,,,,,,,,,,,,,,387.9932,389.1271,389.1272,390.1267,,,,,,0,0.5,,,,,,,,,,,,,,,,,,,,,,,,,,,,,,,,,,,,,,,,,,,,,,,,,,,,,0,75,75,41,1,,,,,,,,,,,,,,,,,,
,,,,,,,,Cascade,1,Female,Hispanic/Latino,NA,2024-12-05_10h35.23.204,dissOSARI,2023.2.3,Win32,59.88023952,,,,,,,,,,,,,,,,,,,,,,,,,,,,,,,,390.1269,391.1952,391.1952,392.1954,,,,,,1,0.5,,,,,,,,,,,,,,,,,,,,,,,,,,,,,,,,,,,,,,,,,,,,,,,,,,,,,0,76,76,79,1,,,,,,,,,,,,,,,,,,
,,,,,,,,Cascade,1,Female,Hispanic/Latino,NA,2024-12-05_10h35.23.204,dissOSARI,2023.2.3,Win32,59.88023952,,,,,,,,,,,,,,,,,,,,,,,,,,,,,,,,392.1956,395.8493,395.8493,396.8489,,,,,,0,0.5,,,,,,,,,,,,,,,,,,,,,,,,,,,,,,,,,,,,,,,,,,,,,,,,,,,,,0,77,77,54,1,,,,,,,,,,,,,,,,,,
,,,,,,,,Cascade,1,Female,Hispanic/Latino,NA,2024-12-05_10h35.23.204,dissOSARI,2023.2.3,Win32,59.88023952,,,,,,,,,,,,,,,,,,,,,,,,,,,,,,,,396.8492,398.5182,398.5183,399.5187,,,,,,0,0.5,,,,,,,,,,,,,,,,,,,,,,,,,,,,,,,,,,,,,,,,,,,,,,,,,,,,,0,78,78,42,1,,,,,,,,,,,,,,,,,,
,,,,,,,,Cascade,1,Female,Hispanic/Latino,NA,2024-12-05_10h35.23.204,dissOSARI,2023.2.3,Win32,59.88023952,,,,,,,,,,,,,,,,,,,,,,,,,,,,,,,,399.5198,400.6033,400.6033,401.6034,,,,,,0,0.5,,,,,,,,,,,,,,,,,,,,,,,,,,,,,,,,,,,,,,,,,,,,,,,,,,,,,0,79,79,56,1,,,,,,,,,,,,,,,,,,
,,,,,,,,Cascade,1,Female,Hispanic/Latino,NA,2024-12-05_10h35.23.204,dissOSARI,2023.2.3,Win32,59.88023952,,,,,,,,,,,,,,,,,,,,,,,,,,,,,,,,404.3411,406.4247,406.4248,407.4248,,,,,,0,0.5,,,,,,,,,,,,,,,,,,,,,,,,,,,,,,,,,,,,,,,,,,,,,,,,,,,401.6045,404.3389,0,0,0,2,1,,,,,,,,,,,,,,,,,,
,,,,,,,,Cascade,1,Female,Hispanic/Latino,NA,2024-12-05_10h35.23.204,dissOSARI,2023.2.3,Win32,59.88023952,,,,,,,,,,,,,,,,,,,,,,,,,,,,,,,,407.4255,408.5268,408.5268,409.5266,,,,,,0,0.5,,,,,,,,,,,,,,,,,,,,,,,,,,,,,,,,,,,,,,,,,,,,,,,,,,,,,0,1,1,49,1,,,,,,,,,,,,,,,,,,
,,,,,,,,Cascade,1,Female,Hispanic/Latino,NA,2024-12-05_10h35.23.204,dissOSARI,2023.2.3,Win32,59.88023952,,,,,,,,,,,,,,,,,,,,,,,,,,,,,,,,409.5269,410.6284,410.6284,411.6286,,,,,,0,0.5,,,,,,,,,,,,,,,,,,,,,,,,,,,,,,,,,,,,,,,,,,,,,,,,,,,,,0,2,2,56,1,,,,,,,,,,,,,,,,,,
,,,,,,,,Cascade,1,Female,Hispanic/Latino,NA,2024-12-05_10h35.23.204,dissOSARI,2023.2.3,Win32,59.88023952,,,,,,,,,,,,,,,,,,,,,,,,,,,,,,,,411.6296,412.8135,412.8137,413.8136,,,,,,0,0.5,,,,,,,,,,,,,,,,,,,,,,,,,,,,,,,,,,,,,,,,,,,,,,,,,,,,,0,3,3,13,1,,,,,,,,,,,,,,,,,,
,,,,,,,,Cascade,1,Female,Hispanic/Latino,NA,2024-12-05_10h35.23.204,dissOSARI,2023.2.3,Win32,59.88023952,,,,,,,,,,,,,,,,,,,,,,,,,,,,,,,,413.8147,414.7983,414.7983,415.7984,,,,,,0,0.5,,,,,,,,,,,,,,,,,,,,,,,,,,,,,,,,,,,,,,,,,,,,,,,,,,,,,0,4,4,45,1,,,,,,,,,,,,,,,,,,
,,,,,,,,Cascade,1,Female,Hispanic/Latino,NA,2024-12-05_10h35.23.204,dissOSARI,2023.2.3,Win32,59.88023952,,,,,,,,,,,,,,,,,,,,,,,,,,,,,,,,415.7993,416.8335,416.8335,417.8335,,,,,,0,0.5,,,,,,,,,,,,,,,,,,,,,,,,,,,,,,,,,,,,,,,,,,,,,,,,,,,,,0,5,5,9,1,,,,,,,,,,,,,,,,,,
,,,,,,,,Cascade,1,Female,Hispanic/Latino,NA,2024-12-05_10h35.23.204,dissOSARI,2023.2.3,Win32,59.88023952,,,,,,,,,,,,,,,,,,,,,,,,,,,,,,,,417.8342,418.7517,418.7517,419.7519,,,,,,0,0.5,,,,,,,,,,,,,,,,,,,,,,,,,,,,,,,,,,,,,,,,,,,,,,,,,,,,,0,6,6,33,1,,,,,,,,,,,,,,,,,,
,,,,,,,,Cascade,1,Female,Hispanic/Latino,NA,2024-12-05_10h35.23.204,dissOSARI,2023.2.3,Win32,59.88023952,,,,,,,,,,,,,,,,,,,,,,,,,,,,,,,,419.7525,420.7198,420.7199,421.72,,,,,,0,0.5,,,,,,,,,,,,,,,,,,,,,,,,,,,,,,,,,,,,,,,,,,,,,,,,,,,,,0,7,7,39,1,,,,,,,,,,,,,,,,,,
,,,,,,,,Cascade,1,Female,Hispanic/Latino,NA,2024-12-05_10h35.23.204,dissOSARI,2023.2.3,Win32,59.88023952,,,,,,,,,,,,,,,,,,,,,,,,,,,,,,,,421.7204,422.5882,422.5882,423.5886,,,,,,1,0.5,,,,,,,,,,,,,,,,,,,,,,,,,,,,,,,,,,,,,,,,,,,,,,,,,,,,,0,8,8,64,1,,,,,,,,,,,,,,,,,,
,,,,,,,,Cascade,1,Female,Hispanic/Latino,NA,2024-12-05_10h35.23.204,dissOSARI,2023.2.3,Win32,59.88023952,,,,,,,,,,,,,,,,,,,,,,,,,,,,,,,,423.589,424.6563,424.6563,425.6565,,,,,,0,0.5,,,,,,,,,,,,,,,,,,,,,,,,,,,,,,,,,,,,,,,,,,,,,,,,,,,,,0,9,9,14,1,,,,,,,,,,,,,,,,,,
,,,,,,,,Cascade,1,Female,Hispanic/Latino,NA,2024-12-05_10h35.23.204,dissOSARI,2023.2.3,Win32,59.88023952,,,,,,,,,,,,,,,,,,,,,,,,,,,,,,,,425.6571,426.6247,426.6247,427.6249,,,,,,0,0.5,,,,,,,,,,,,,,,,,,,,,,,,,,,,,,,,,,,,,,,,,,,,,,,,,,,,,0,10,10,3,1,,,,,,,,,,,,,,,,,,
,,,,,,,,Cascade,1,Female,Hispanic/Latino,NA,2024-12-05_10h35.23.204,dissOSARI,2023.2.3,Win32,59.88023952,,,,,,,,,,,,,,,,,,,,,,,,,,,,,,,,427.6252,428.5933,428.5934,429.5927,,,,,,0,0.5,,,,,,,,,,,,,,,,,,,,,,,,,,,,,,,,,,,,,,,,,,,,,,,,,,,,,0,11,11,23,1,,,,,,,,,,,,,,,,,,
,,,,,,,,Cascade,1,Female,Hispanic/Latino,NA,2024-12-05_10h35.23.204,dissOSARI,2023.2.3,Win32,59.88023952,,,,,,,,,,,,,,,,,,,,,,,,,,,,,,,,429.5931,430.6104,430.6104,431.6113,,,,,,0,0.5,,,,,,,,,,,,,,,,,,,,,,,,,,,,,,,,,,,,,,,,,,,,,,,,,,,,,0,12,12,51,1,,,,,,,,,,,,,,,,,,
,,,,,,,,Cascade,1,Female,Hispanic/Latino,NA,2024-12-05_10h35.23.204,dissOSARI,2023.2.3,Win32,59.88023952,,,,,,,,,,,,,,,,,,,,,,,,,,,,,,,,431.6119,432.6964,432.6964,433.6966,,,,,,0,0.5,,,,,,,,,,,,,,,,,,,,,,,,,,,,,,,,,,,,,,,,,,,,,,,,,,,,,0,13,13,30,1,,,,,,,,,,,,,,,,,,
,,,,,,,,Cascade,1,Female,Hispanic/Latino,NA,2024-12-05_10h35.23.204,dissOSARI,2023.2.3,Win32,59.88023952,,,,,,,,,,,,,,,,,,,,,,,,,,,,,,,,433.697,434.7643,434.7644,435.7645,,,,,,0,0.5,,,,,,,,,,,,,,,,,,,,,,,,,,,,,,,,,,,,,,,,,,,,,,,,,,,,,0,14,14,8,1,,,,,,,,,,,,,,,,,,
,,,,,,,,Cascade,1,Female,Hispanic/Latino,NA,2024-12-05_10h35.23.204,dissOSARI,2023.2.3,Win32,59.88023952,,,,,,,,,,,,,,,,,,,,,,,,,,,,,,,,435.7648,436.7998,436.7998,437.8001,,,,,,0,0.5,,,,,,,,,,,,,,,,,,,,,,,,,,,,,,,,,,,,,,,,,,,,,,,,,,,,,0,15,15,17,1,,,,,,,,,,,,,,,,,,
,,,,,,,,Cascade,1,Female,Hispanic/Latino,NA,2024-12-05_10h35.23.204,dissOSARI,2023.2.3,Win32,59.88023952,,,,,,,,,,,,,,,,,,,,,,,,,,,,,,,,437.8006,438.9848,438.9848,439.985,,,,,,0,0.5,,,,,,,,,,,,,,,,,,,,,,,,,,,,,,,,,,,,,,,,,,,,,,,,,,,,,0,16,16,1,1,,,,,,,,,,,,,,,,,,
,,,,,,,,Cascade,1,Female,Hispanic/Latino,NA,2024-12-05_10h35.23.204,dissOSARI,2023.2.3,Win32,59.88023952,,,,,,,,,,,,,,,,,,,,,,,,,,,,,,,,439.9856,441.0533,441.0533,442.0535,,,,,,0,0.5,,,,,,,,,,,,,,,,,,,,,,,,,,,,,,,,,,,,,,,,,,,,,,,,,,,,,0,17,17,57,1,,,,,,,,,,,,,,,,,,
,,,,,,,,Cascade,1,Female,Hispanic/Latino,NA,2024-12-05_10h35.23.204,dissOSARI,2023.2.3,Win32,59.88023952,,,,,,,,,,,,,,,,,,,,,,,,,,,,,,,,442.0542,443.0713,443.0714,444.0718,,,,,,0,0.5,,,,,,,,,,,,,,,,,,,,,,,,,,,,,,,,,,,,,,,,,,,,,,,,,,,,,0,18,18,42,1,,,,,,,,,,,,,,,,,,
,,,,,,,,Cascade,1,Female,Hispanic/Latino,NA,2024-12-05_10h35.23.204,dissOSARI,2023.2.3,Win32,59.88023952,,,,,,,,,,,,,,,,,,,,,,,,,,,,,,,,444.0722,445.0571,445.0571,446.057,,,,,,0,0.5,,,,,,,,,,,,,,,,,,,,,,,,,,,,,,,,,,,,,,,,,,,,,,,,,,,,,0,19,19,32,1,,,,,,,,,,,,,,,,,,
,,,,,,,,Cascade,1,Female,Hispanic/Latino,NA,2024-12-05_10h35.23.204,dissOSARI,2023.2.3,Win32,59.88023952,,,,,,,,,,,,,,,,,,,,,,,,,,,,,,,,446.0577,447.0587,447.0587,448.0585,,,,,,0,0.5,,,,,,,,,,,,,,,,,,,,,,,,,,,,,,,,,,,,,,,,,,,,,,,,,,,,,0,20,20,5,1,,,,,,,,,,,,,,,,,,
,,,,,,,,Cascade,1,Female,Hispanic/Latino,NA,2024-12-05_10h35.23.204,dissOSARI,2023.2.3,Win32,59.88023952,,,,,,,,,,,,,,,,,,,,,,,,,,,,,,,,448.059,449.1932,449.1932,450.1932,,,,,,0,0.5,,,,,,,,,,,,,,,,,,,,,,,,,,,,,,,,,,,,,,,,,,,,,,,,,,,,,0,21,21,54,1,,,,,,,,,,,,,,,,,,
,,,,,,,,Cascade,1,Female,Hispanic/Latino,NA,2024-12-05_10h35.23.204,dissOSARI,2023.2.3,Win32,59.88023952,,,,,,,,,,,,,,,,,,,,,,,,,,,,,,,,450.1935,451.4957,451.4957,452.4956,,,,,,1,0.5,,,,,,,,,,,,,,,,,,,,,,,,,,,,,,,,,,,,,,,,,,,,,,,,,,,,,0,22,22,61,1,,,,,,,,,,,,,,,,,,
,,,,,,,,Cascade,1,Female,Hispanic/Latino,NA,2024-12-05_10h35.23.204,dissOSARI,2023.2.3,Win32,59.88023952,,,,,,,,,,,,,,,,,,,,,,,,,,,,,,,,452.4963,453.6804,453.6804,454.681,,,,,,0,0.5,,,,,,,,,,,,,,,,,,,,,,,,,,,,,,,,,,,,,,,,,,,,,,,,,,,,,0,23,23,24,1,,,,,,,,,,,,,,,,,,
,,,,,,,,Cascade,1,Female,Hispanic/Latino,NA,2024-12-05_10h35.23.204,dissOSARI,2023.2.3,Win32,59.88023952,,,,,,,,,,,,,,,,,,,,,,,,,,,,,,,,454.6817,455.5989,455.599,456.5989,,,,,,0,0.5,,,,,,,,,,,,,,,,,,,,,,,,,,,,,,,,,,,,,,,,,,,,,,,,,,,,,0,24,24,34,1,,,,,,,,,,,,,,,,,,
,,,,,,,,Cascade,1,Female,Hispanic/Latino,NA,2024-12-05_10h35.23.204,dissOSARI,2023.2.3,Win32,59.88023952,,,,,,,,,,,,,,,,,,,,,,,,,,,,,,,,456.5993,457.5834,457.5835,458.584,,,,,,0,0.5,,,,,,,,,,,,,,,,,,,,,,,,,,,,,,,,,,,,,,,,,,,,,,,,,,,,,0,25,25,6,1,,,,,,,,,,,,,,,,,,
,,,,,,,,Cascade,1,Female,Hispanic/Latino,NA,2024-12-05_10h35.23.204,dissOSARI,2023.2.3,Win32,59.88023952,,,,,,,,,,,,,,,,,,,,,,,,,,,,,,,,458.5852,459.7696,459.7696,460.7692,,,,,,1,0.5,,,,,,,,,,,,,,,,,,,,,,,,,,,,,,,,,,,,,,,,,,,,,,,,,,,,,0,26,26,72,1,,,,,,,,,,,,,,,,,,
,,,,,,,,Cascade,1,Female,Hispanic/Latino,NA,2024-12-05_10h35.23.204,dissOSARI,2023.2.3,Win32,59.88023952,,,,,,,,,,,,,,,,,,,,,,,,,,,,,,,,460.7699,461.9039,461.904,462.9041,,,,,,0,0.5,,,,,,,,,,,,,,,,,,,,,,,,,,,,,,,,,,,,,,,,,,,,,,,,,,,,,0,27,27,59,1,,,,,,,,,,,,,,,,,,
,,,,,,,,Cascade,1,Female,Hispanic/Latino,NA,2024-12-05_10h35.23.204,dissOSARI,2023.2.3,Win32,59.88023952,,,,,,,,,,,,,,,,,,,,,,,,,,,,,,,,462.9045,463.9722,463.9722,464.9726,,,,,,0,0.5,,,,,,,,,,,,,,,,,,,,,,,,,,,,,,,,,,,,,,,,,,,,,,,,,,,,,0,28,28,46,1,,,,,,,,,,,,,,,,,,
,,,,,,,,Cascade,1,Female,Hispanic/Latino,NA,2024-12-05_10h35.23.204,dissOSARI,2023.2.3,Win32,59.88023952,,,,,,,,,,,,,,,,,,,,,,,,,,,,,,,,464.9733,466.0074,466.0074,467.0071,,,,,,0,0.5,,,,,,,,,,,,,,,,,,,,,,,,,,,,,,,,,,,,,,,,,,,,,,,,,,,,,0,29,29,43,1,,,,,,,,,,,,,,,,,,
,,,,,,,,Cascade,1,Female,Hispanic/Latino,NA,2024-12-05_10h35.23.204,dissOSARI,2023.2.3,Win32,59.88023952,,,,,,,,,,,,,,,,,,,,,,,,,,,,,,,,467.0074,468.276,468.276,469.2762,,,,,,1,0.5,,,,,,,,,,,,,,,,,,,,,,,,,,,,,,,,,,,,,,,,,,,,,,,,,,,,,0,30,30,70,1,,,,,,,,,,,,,,,,,,
,,,,,,,,Cascade,1,Female,Hispanic/Latino,NA,2024-12-05_10h35.23.204,dissOSARI,2023.2.3,Win32,59.88023952,,,,,,,,,,,,,,,,,,,,,,,,,,,,,,,,469.2767,470.6118,470.6118,471.6114,,,,,,1,0.5,,,,,,,,,,,,,,,,,,,,,,,,,,,,,,,,,,,,,,,,,,,,,,,,,,,,,0,31,31,65,1,,,,,,,,,,,,,,,,,,
,,,,,,,,Cascade,1,Female,Hispanic/Latino,NA,2024-12-05_10h35.23.204,dissOSARI,2023.2.3,Win32,59.88023952,,,,,,,,,,,,,,,,,,,,,,,,,,,,,,,,471.6119,472.9473,472.9473,473.9467,,,,,,1,0.5,,,,,,,,,,,,,,,,,,,,,,,,,,,,,,,,,,,,,,,,,,,,,,,,,,,,,0,32,32,73,1,,,,,,,,,,,,,,,,,,
,,,,,,,,Cascade,1,Female,Hispanic/Latino,NA,2024-12-05_10h35.23.204,dissOSARI,2023.2.3,Win32,59.88023952,,,,,,,,,,,,,,,,,,,,,,,,,,,,,,,,473.9472,475.2482,475.2483,476.2485,,,,,,1,0.5,,,,,,,,,,,,,,,,,,,,,,,,,,,,,,,,,,,,,,,,,,,,,,,,,,,,,0,33,33,78,1,,,,,,,,,,,,,,,,,,
,,,,,,,,Cascade,1,Female,Hispanic/Latino,NA,2024-12-05_10h35.23.204,dissOSARI,2023.2.3,Win32,59.88023952,,,,,,,,,,,,,,,,,,,,,,,,,,,,,,,,476.2493,477.4661,477.4661,478.467,,,,,,1,0.5,,,,,,,,,,,,,,,,,,,,,,,,,,,,,,,,,,,,,,,,,,,,,,,,,,,,,0,34,34,68,1,,,,,,,,,,,,,,,,,,
,,,,,,,,Cascade,1,Female,Hispanic/Latino,NA,2024-12-05_10h35.23.204,dissOSARI,2023.2.3,Win32,59.88023952,,,,,,,,,,,,,,,,,,,,,,,,,,,,,,,,478.4673,479.4017,479.4018,480.4023,,,,,,0,0.5,,,,,,,,,,,,,,,,,,,,,,,,,,,,,,,,,,,,,,,,,,,,,,,,,,,,,0,35,35,50,1,,,,,,,,,,,,,,,,,,
,,,,,,,,Cascade,1,Female,Hispanic/Latino,NA,2024-12-05_10h35.23.204,dissOSARI,2023.2.3,Win32,59.88023952,,,,,,,,,,,,,,,,,,,,,,,,,,,,,,,,480.4032,481.3534,481.3534,482.3535,,,,,,0,0.5,,,,,,,,,,,,,,,,,,,,,,,,,,,,,,,,,,,,,,,,,,,,,,,,,,,,,0,36,36,25,1,,,,,,,,,,,,,,,,,,
,,,,,,,,Cascade,1,Female,Hispanic/Latino,NA,2024-12-05_10h35.23.204,dissOSARI,2023.2.3,Win32,59.88023952,,,,,,,,,,,,,,,,,,,,,,,,,,,,,,,,482.3541,483.3213,483.3214,484.3214,,,,,,0,0.5,,,,,,,,,,,,,,,,,,,,,,,,,,,,,,,,,,,,,,,,,,,,,,,,,,,,,0,37,37,10,1,,,,,,,,,,,,,,,,,,
,,,,,,,,Cascade,1,Female,Hispanic/Latino,NA,2024-12-05_10h35.23.204,dissOSARI,2023.2.3,Win32,59.88023952,,,,,,,,,,,,,,,,,,,,,,,,,,,,,,,,484.3217,485.4071,485.4071,486.4072,,,,,,1,0.5,,,,,,,,,,,,,,,,,,,,,,,,,,,,,,,,,,,,,,,,,,,,,,,,,,,,,0,38,38,74,1,,,,,,,,,,,,,,,,,,
,,,,,,,,Cascade,1,Female,Hispanic/Latino,NA,2024-12-05_10h35.23.204,dissOSARI,2023.2.3,Win32,59.88023952,,,,,,,,,,,,,,,,,,,,,,,,,,,,,,,,486.4083,487.5584,487.5585,488.5587,,,,,,0,0.5,,,,,,,,,,,,,,,,,,,,,,,,,,,,,,,,,,,,,,,,,,,,,,,,,,,,,0,39,39,4,1,,,,,,,,,,,,,,,,,,
,,,,,,,,Cascade,1,Female,Hispanic/Latino,NA,2024-12-05_10h35.23.204,dissOSARI,2023.2.3,Win32,59.88023952,,,,,,,,,,,,,,,,,,,,,,,,,,,,,,,,488.5591,489.4597,489.4597,490.4604,,,,,,0,0.5,,,,,,,,,,,,,,,,,,,,,,,,,,,,,,,,,,,,,,,,,,,,,,,,,,,,,0,40,40,36,1,,,,,,,,,,,,,,,,,,
,,,,,,,,Cascade,1,Female,Hispanic/Latino,NA,2024-12-05_10h35.23.204,dissOSARI,2023.2.3,Win32,59.88023952,,,,,,,,,,,,,,,,,,,,,,,,,,,,,,,,490.4616,491.3783,491.3783,492.3781,,,,,,0,0.5,,,,,,,,,,,,,,,,,,,,,,,,,,,,,,,,,,,,,,,,,,,,,,,,,,,,,0,41,41,41,1,,,,,,,,,,,,,,,,,,
,,,,,,,,Cascade,1,Female,Hispanic/Latino,NA,2024-12-05_10h35.23.204,dissOSARI,2023.2.3,Win32,59.88023952,,,,,,,,,,,,,,,,,,,,,,,,,,,,,,,,492.3786,493.2793,493.2793,494.2798,,,,,,0,0.5,,,,,,,,,,,,,,,,,,,,,,,,,,,,,,,,,,,,,,,,,,,,,,,,,,,,,0,42,42,40,1,,,,,,,,,,,,,,,,,,
,,,,,,,,Cascade,1,Female,Hispanic/Latino,NA,2024-12-05_10h35.23.204,dissOSARI,2023.2.3,Win32,59.88023952,,,,,,,,,,,,,,,,,,,,,,,,,,,,,,,,494.2801,495.2148,495.2148,496.2154,,,,,,0,0.5,,,,,,,,,,,,,,,,,,,,,,,,,,,,,,,,,,,,,,,,,,,,,,,,,,,,,0,43,43,55,1,,,,,,,,,,,,,,,,,,
,,,,,,,,Cascade,1,Female,Hispanic/Latino,NA,2024-12-05_10h35.23.204,dissOSARI,2023.2.3,Win32,59.88023952,,,,,,,,,,,,,,,,,,,,,,,,,,,,,,,,496.2163,497.0831,497.0832,498.0831,,,,,,0,0.5,,,,,,,,,,,,,,,,,,,,,,,,,,,,,,,,,,,,,,,,,,,,,,,,,,,,,0,44,44,26,1,,,,,,,,,,,,,,,,,,
,,,,,,,,Cascade,1,Female,Hispanic/Latino,NA,2024-12-05_10h35.23.204,dissOSARI,2023.2.3,Win32,59.88023952,,,,,,,,,,,,,,,,,,,,,,,,,,,,,,,,498.0836,499.2184,499.2184,500.2177,,,,,,1,0.5,,,,,,,,,,,,,,,,,,,,,,,,,,,,,,,,,,,,,,,,,,,,,,,,,,,,,0,45,45,79,1,,,,,,,,,,,,,,,,,,
,,,,,,,,Cascade,1,Female,Hispanic/Latino,NA,2024-12-05_10h35.23.204,dissOSARI,2023.2.3,Win32,59.88023952,,,,,,,,,,,,,,,,,,,,,,,,,,,,,,,,500.2179,501.2533,501.2533,502.2533,,,,,,1,0.5,,,,,,,,,,,,,,,,,,,,,,,,,,,,,,,,,,,,,,,,,,,,,,,,,,,,,0,46,46,60,1,,,,,,,,,,,,,,,,,,
,,,,,,,,Cascade,1,Female,Hispanic/Latino,NA,2024-12-05_10h35.23.204,dissOSARI,2023.2.3,Win32,59.88023952,,,,,,,,,,,,,,,,,,,,,,,,,,,,,,,,502.2537,503.388,503.3881,504.3886,,,,,,0,0.5,,,,,,,,,,,,,,,,,,,,,,,,,,,,,,,,,,,,,,,,,,,,,,,,,,,,,0,47,47,7,1,,,,,,,,,,,,,,,,,,
,,,,,,,,Cascade,1,Female,Hispanic/Latino,NA,2024-12-05_10h35.23.204,dissOSARI,2023.2.3,Win32,59.88023952,,,,,,,,,,,,,,,,,,,,,,,,,,,,,,,,504.3891,505.5072,505.5073,506.5071,,,,,,1,0.5,,,,,,,,,,,,,,,,,,,,,,,,,,,,,,,,,,,,,,,,,,,,,,,,,,,,,0,48,48,69,1,,,,,,,,,,,,,,,,,,
,,,,,,,,Cascade,1,Female,Hispanic/Latino,NA,2024-12-05_10h35.23.204,dissOSARI,2023.2.3,Win32,59.88023952,,,,,,,,,,,,,,,,,,,,,,,,,,,,,,,,506.5075,507.5749,507.575,508.5754,,,,,,0,0.5,,,,,,,,,,,,,,,,,,,,,,,,,,,,,,,,,,,,,,,,,,,,,,,,,,,,,0,49,49,19,1,,,,,,,,,,,,,,,,,,
,,,,,,,,Cascade,1,Female,Hispanic/Latino,NA,2024-12-05_10h35.23.204,dissOSARI,2023.2.3,Win32,59.88023952,,,,,,,,,,,,,,,,,,,,,,,,,,,,,,,,508.576,509.5931,509.5932,510.5938,,,,,,0,0.5,,,,,,,,,,,,,,,,,,,,,,,,,,,,,,,,,,,,,,,,,,,,,,,,,,,,,0,50,50,31,1,,,,,,,,,,,,,,,,,,
,,,,,,,,Cascade,1,Female,Hispanic/Latino,NA,2024-12-05_10h35.23.204,dissOSARI,2023.2.3,Win32,59.88023952,,,,,,,,,,,,,,,,,,,,,,,,,,,,,,,,510.5947,511.5449,511.5449,512.5451,,,,,,0,0.5,,,,,,,,,,,,,,,,,,,,,,,,,,,,,,,,,,,,,,,,,,,,,,,,,,,,,0,51,51,12,1,,,,,,,,,,,,,,,,,,
,,,,,,,,Cascade,1,Female,Hispanic/Latino,NA,2024-12-05_10h35.23.204,dissOSARI,2023.2.3,Win32,59.88023952,,,,,,,,,,,,,,,,,,,,,,,,,,,,,,,,512.5457,513.53,513.53,514.5301,,,,,,0,0.5,,,,,,,,,,,,,,,,,,,,,,,,,,,,,,,,,,,,,,,,,,,,,,,,,,,,,0,52,52,44,1,,,,,,,,,,,,,,,,,,
,,,,,,,,Cascade,1,Female,Hispanic/Latino,NA,2024-12-05_10h35.23.204,dissOSARI,2023.2.3,Win32,59.88023952,,,,,,,,,,,,,,,,,,,,,,,,,,,,,,,,514.5308,515.4982,515.4983,516.4987,,,,,,0,0.5,,,,,,,,,,,,,,,,,,,,,,,,,,,,,,,,,,,,,,,,,,,,,,,,,,,,,0,53,53,29,1,,,,,,,,,,,,,,,,,,
,,,,,,,,Cascade,1,Female,Hispanic/Latino,NA,2024-12-05_10h35.23.204,dissOSARI,2023.2.3,Win32,59.88023952,,,,,,,,,,,,,,,,,,,,,,,,,,,,,,,,516.4994,517.4001,517.4001,518.4,,,,,,0,0.5,,,,,,,,,,,,,,,,,,,,,,,,,,,,,,,,,,,,,,,,,,,,,,,,,,,,,0,54,54,27,1,,,,,,,,,,,,,,,,,,
,,,,,,,,Cascade,1,Female,Hispanic/Latino,NA,2024-12-05_10h35.23.204,dissOSARI,2023.2.3,Win32,59.88023952,,,,,,,,,,,,,,,,,,,,,,,,,,,,,,,,518.4003,519.3016,519.3016,520.301,,,,,,0,0.5,,,,,,,,,,,,,,,,,,,,,,,,,,,,,,,,,,,,,,,,,,,,,,,,,,,,,0,55,55,38,1,,,,,,,,,,,,,,,,,,
,,,,,,,,Cascade,1,Female,Hispanic/Latino,NA,2024-12-05_10h35.23.204,dissOSARI,2023.2.3,Win32,59.88023952,,,,,,,,,,,,,,,,,,,,,,,,,,,,,,,,520.3011,521.2698,521.2698,522.27,,,,,,0,0.5,,,,,,,,,,,,,,,,,,,,,,,,,,,,,,,,,,,,,,,,,,,,,,,,,,,,,0,56,56,21,1,,,,,,,,,,,,,,,,,,
,,,,,,,,Cascade,1,Female,Hispanic/Latino,NA,2024-12-05_10h35.23.204,dissOSARI,2023.2.3,Win32,59.88023952,,,,,,,,,,,,,,,,,,,,,,,,,,,,,,,,522.2707,523.2382,523.2382,524.2381,,,,,,0,0.5,,,,,,,,,,,,,,,,,,,,,,,,,,,,,,,,,,,,,,,,,,,,,,,,,,,,,0,57,57,0,1,,,,,,,,,,,,,,,,,,
,,,,,,,,Cascade,1,Female,Hispanic/Latino,NA,2024-12-05_10h35.23.204,dissOSARI,2023.2.3,Win32,59.88023952,,,,,,,,,,,,,,,,,,,,,,,,,,,,,,,,524.2387,525.4065,525.4065,526.4064,,,,,,0,0.5,,,,,,,,,,,,,,,,,,,,,,,,,,,,,,,,,,,,,,,,,,,,,,,,,,,,,0,58,58,16,1,,,,,,,,,,,,,,,,,,
,,,,,,,,Cascade,1,Female,Hispanic/Latino,NA,2024-12-05_10h35.23.204,dissOSARI,2023.2.3,Win32,59.88023952,,,,,,,,,,,,,,,,,,,,,,,,,,,,,,,,526.4068,527.3749,527.3749,528.3754,,,,,,1,0.5,,,,,,,,,,,,,,,,,,,,,,,,,,,,,,,,,,,,,,,,,,,,,,,,,,,,,0,59,59,76,1,,,,,,,,,,,,,,,,,,
,,,,,,,,Cascade,1,Female,Hispanic/Latino,NA,2024-12-05_10h35.23.204,dissOSARI,2023.2.3,Win32,59.88023952,,,,,,,,,,,,,,,,,,,,,,,,,,,,,,,,528.3761,529.2264,529.2265,530.2258,,,,,,0,0.5,,,,,,,,,,,,,,,,,,,,,,,,,,,,,,,,,,,,,,,,,,,,,,,,,,,,,0,60,60,37,1,,,,,,,,,,,,,,,,,,
,,,,,,,,Cascade,1,Female,Hispanic/Latino,NA,2024-12-05_10h35.23.204,dissOSARI,2023.2.3,Win32,59.88023952,,,,,,,,,,,,,,,,,,,,,,,,,,,,,,,,530.226,531.0614,531.0614,532.0613,,,,,,0,0.5,,,,,,,,,,,,,,,,,,,,,,,,,,,,,,,,,,,,,,,,,,,,,,,,,,,,,0,61,61,28,1,,,,,,,,,,,,,,,,,,
,,,,,,,,Cascade,1,Female,Hispanic/Latino,NA,2024-12-05_10h35.23.204,dissOSARI,2023.2.3,Win32,59.88023952,,,,,,,,,,,,,,,,,,,,,,,,,,,,,,,,532.0618,533.0801,533.0801,534.0796,,,,,,1,0.5,,,,,,,,,,,,,,,,,,,,,,,,,,,,,,,,,,,,,,,,,,,,,,,,,,,,,0,62,62,62,1,,,,,,,,,,,,,,,,,,
,,,,,,,,Cascade,1,Female,Hispanic/Latino,NA,2024-12-05_10h35.23.204,dissOSARI,2023.2.3,Win32,59.88023952,,,,,,,,,,,,,,,,,,,,,,,,,,,,,,,,534.08,534.9811,534.9812,535.9814,,,,,,0,0.5,,,,,,,,,,,,,,,,,,,,,,,,,,,,,,,,,,,,,,,,,,,,,,,,,,,,,0,63,63,20,1,,,,,,,,,,,,,,,,,,
,,,,,,,,Cascade,1,Female,Hispanic/Latino,NA,2024-12-05_10h35.23.204,dissOSARI,2023.2.3,Win32,59.88023952,,,,,,,,,,,,,,,,,,,,,,,,,,,,,,,,535.982,537.0334,537.0335,538.0329,,,,,,1,0.5,,,,,,,,,,,,,,,,,,,,,,,,,,,,,,,,,,,,,,,,,,,,,,,,,,,,,0,64,64,63,1,,,,,,,,,,,,,,,,,,
,,,,,,,,Cascade,1,Female,Hispanic/Latino,NA,2024-12-05_10h35.23.204,dissOSARI,2023.2.3,Win32,59.88023952,,,,,,,,,,,,,,,,,,,,,,,,,,,,,,,,538.0335,539.3346,539.3346,540.3343,,,,,,1,0.5,,,,,,,,,,,,,,,,,,,,,,,,,,,,,,,,,,,,,,,,,,,,,,,,,,,,,0,65,65,71,1,,,,,,,,,,,,,,,,,,
,,,,,,,,Cascade,1,Female,Hispanic/Latino,NA,2024-12-05_10h35.23.204,dissOSARI,2023.2.3,Win32,59.88023952,,,,,,,,,,,,,,,,,,,,,,,,,,,,,,,,540.3345,541.186,541.1861,542.1865,,,,,,1,0.5,,,,,,,,,,,,,,,,,,,,,,,,,,,,,,,,,,,,,,,,,,,,,,,,,,,,,0,66,66,66,1,,,,,,,,,,,,,,,,,,
,,,,,,,,Cascade,1,Female,Hispanic/Latino,NA,2024-12-05_10h35.23.204,dissOSARI,2023.2.3,Win32,59.88023952,,,,,,,,,,,,,,,,,,,,,,,,,,,,,,,,542.1873,543.288,543.288,544.2878,,,,,,0,0.5,,,,,,,,,,,,,,,,,,,,,,,,,,,,,,,,,,,,,,,,,,,,,,,,,,,,,0,67,67,53,1,,,,,,,,,,,,,,,,,,
,,,,,,,,Cascade,1,Female,Hispanic/Latino,NA,2024-12-05_10h35.23.204,dissOSARI,2023.2.3,Win32,59.88023952,,,,,,,,,,,,,,,,,,,,,,,,,,,,,,,,544.288,545.2229,545.2229,546.2225,,,,,,0,0.5,,,,,,,,,,,,,,,,,,,,,,,,,,,,,,,,,,,,,,,,,,,,,,,,,,,,,0,68,68,22,1,,,,,,,,,,,,,,,,,,
,,,,,,,,Cascade,1,Female,Hispanic/Latino,NA,2024-12-05_10h35.23.204,dissOSARI,2023.2.3,Win32,59.88023952,,,,,,,,,,,,,,,,,,,,,,,,,,,,,,,,546.2226,547.1069,547.1069,548.1074,,,,,,0,0.5,,,,,,,,,,,,,,,,,,,,,,,,,,,,,,,,,,,,,,,,,,,,,,,,,,,,,0,69,69,35,1,,,,,,,,,,,,,,,,,,
,,,,,,,,Cascade,1,Female,Hispanic/Latino,NA,2024-12-05_10h35.23.204,dissOSARI,2023.2.3,Win32,59.88023952,,,,,,,,,,,,,,,,,,,,,,,,,,,,,,,,548.1076,548.9584,548.9585,549.9595,,,,,,0,0.5,,,,,,,,,,,,,,,,,,,,,,,,,,,,,,,,,,,,,,,,,,,,,,,,,,,,,0,70,70,47,1,,,,,,,,,,,,,,,,,,
,,,,,,,,Cascade,1,Female,Hispanic/Latino,NA,2024-12-05_10h35.23.204,dissOSARI,2023.2.3,Win32,59.88023952,,,,,,,,,,,,,,,,,,,,,,,,,,,,,,,,549.9606,550.8103,550.8103,551.8108,,,,,,0,0.5,,,,,,,,,,,,,,,,,,,,,,,,,,,,,,,,,,,,,,,,,,,,,,,,,,,,,0,71,71,15,1,,,,,,,,,,,,,,,,,,
,,,,,,,,Cascade,1,Female,Hispanic/Latino,NA,2024-12-05_10h35.23.204,dissOSARI,2023.2.3,Win32,59.88023952,,,,,,,,,,,,,,,,,,,,,,,,,,,,,,,,551.8112,552.8293,552.8293,553.8292,,,,,,1,0.5,,,,,,,,,,,,,,,,,,,,,,,,,,,,,,,,,,,,,,,,,,,,,,,,,,,,,0,72,72,77,1,,,,,,,,,,,,,,,,,,
,,,,,,,,Cascade,1,Female,Hispanic/Latino,NA,2024-12-05_10h35.23.204,dissOSARI,2023.2.3,Win32,59.88023952,,,,,,,,,,,,,,,,,,,,,,,,,,,,,,,,553.8298,554.8971,554.8972,555.8977,,,,,,0,0.5,,,,,,,,,,,,,,,,,,,,,,,,,,,,,,,,,,,,,,,,,,,,,,,,,,,,,0,73,73,11,1,,,,,,,,,,,,,,,,,,
,,,,,,,,Cascade,1,Female,Hispanic/Latino,NA,2024-12-05_10h35.23.204,dissOSARI,2023.2.3,Win32,59.88023952,,,,,,,,,,,,,,,,,,,,,,,,,,,,,,,,555.898,556.7984,556.7984,557.7994,,,,,,0,0.5,,,,,,,,,,,,,,,,,,,,,,,,,,,,,,,,,,,,,,,,,,,,,,,,,,,,,0,74,74,18,1,,,,,,,,,,,,,,,,,,
,,,,,,,,Cascade,1,Female,Hispanic/Latino,NA,2024-12-05_10h35.23.204,dissOSARI,2023.2.3,Win32,59.88023952,,,,,,,,,,,,,,,,,,,,,,,,,,,,,,,,557.8004,558.8841,558.8841,559.8843,,,,,,0,0.5,,,,,,,,,,,,,,,,,,,,,,,,,,,,,,,,,,,,,,,,,,,,,,,,,,,,,0,75,75,52,1,,,,,,,,,,,,,,,,,,
,,,,,,,,Cascade,1,Female,Hispanic/Latino,NA,2024-12-05_10h35.23.204,dissOSARI,2023.2.3,Win32,59.88023952,,,,,,,,,,,,,,,,,,,,,,,,,,,,,,,,559.8846,561.1025,561.1025,562.1028,,,,,,1,0.5,,,,,,,,,,,,,,,,,,,,,,,,,,,,,,,,,,,,,,,,,,,,,,,,,,,,,0,76,76,75,1,,,,,,,,,,,,,,,,,,
,,,,,,,,Cascade,1,Female,Hispanic/Latino,NA,2024-12-05_10h35.23.204,dissOSARI,2023.2.3,Win32,59.88023952,,,,,,,,,,,,,,,,,,,,,,,,,,,,,,,,562.1036,563.2543,563.2543,564.2544,,,,,,0,0.5,,,,,,,,,,,,,,,,,,,,,,,,,,,,,,,,,,,,,,,,,,,,,,,,,,,,,0,77,77,58,1,,,,,,,,,,,,,,,,,,
,,,,,,,,Cascade,1,Female,Hispanic/Latino,NA,2024-12-05_10h35.23.204,dissOSARI,2023.2.3,Win32,59.88023952,,,,,,,,,,,,,,,,,,,,,,,,,,,,,,,,564.2549,565.4901,565.4901,566.4898,,,,,,1,0.5,,,,,,,,,,,,,,,,,,,,,,,,,,,,,,,,,,,,,,,,,,,,,,,,,,,,,0,78,78,67,1,,,,,,,,,,,,,,,,,,
,,,,,,,,Cascade,1,Female,Hispanic/Latino,NA,2024-12-05_10h35.23.204,dissOSARI,2023.2.3,Win32,59.88023952,,,,,,,,,,,,,,,,,,,,,,,,,,,,,,,,566.4909,567.5748,567.5749,568.5748,,,,,,0,0.5,,,,,,,,,,,,,,,,,,,,,,,,,,,,,,,,,,,,,,,,,,,,,,,,,,,,,0,79,79,48,1,,,,,,,,,,,,,,,,,,
,,,,,,,,Cascade,1,Female,Hispanic/Latino,NA,2024-12-05_10h35.23.204,dissOSARI,2023.2.3,Win32,59.88023952,,,,,,,,,,,,,,,,,,,,,,,,,,,,,,,,614.7476,616.8821,616.8821,617.8822,,,,,,1,0.5,,,,,,,,,,,,,,,,,,,,,,,,,,,,,,,,,,,,,,,,,,,,,,,,,,,568.5752,614.7461,0,0,0,63,1,,,,,,,,,,,,,,,,,,
,,,,,,,,Cascade,1,Female,Hispanic/Latino,NA,2024-12-05_10h35.23.204,dissOSARI,2023.2.3,Win32,59.88023952,,,,,,,,,,,,,,,,,,,,,,,,,,,,,,,,617.8827,619.1576,619.1576,620.1507,,,,,,1,0.5,,,,,,,,,,,,,,,,,,,,,,,,,,,,,,,,,,,,,,,,,,,,,,,,,,,,,0,1,1,66,1,,,,,,,,,,,,,,,,,,
,,,,,,,,Cascade,1,Female,Hispanic/Latino,NA,2024-12-05_10h35.23.204,dissOSARI,2023.2.3,Win32,59.88023952,,,,,,,,,,,,,,,,,,,,,,,,,,,,,,,,620.151,621.119,621.119,622.1191,,,,,,0,0.5,,,,,,,,,,,,,,,,,,,,,,,,,,,,,,,,,,,,,,,,,,,,,,,,,,,,,0,2,2,59,1,,,,,,,,,,,,,,,,,,
,,,,,,,,Cascade,1,Female,Hispanic/Latino,NA,2024-12-05_10h35.23.204,dissOSARI,2023.2.3,Win32,59.88023952,,,,,,,,,,,,,,,,,,,,,,,,,,,,,,,,622.1196,623.0697,623.0697,624.0702,,,,,,0,0.5,,,,,,,,,,,,,,,,,,,,,,,,,,,,,,,,,,,,,,,,,,,,,,,,,,,,,0,3,3,43,1,,,,,,,,,,,,,,,,,,
,,,,,,,,Cascade,1,Female,Hispanic/Latino,NA,2024-12-05_10h35.23.204,dissOSARI,2023.2.3,Win32,59.88023952,,,,,,,,,,,,,,,,,,,,,,,,,,,,,,,,624.0705,624.9721,624.9722,625.9724,,,,,,0,0.5,,,,,,,,,,,,,,,,,,,,,,,,,,,,,,,,,,,,,,,,,,,,,,,,,,,,,0,4,4,32,1,,,,,,,,,,,,,,,,,,
,,,,,,,,Cascade,1,Female,Hispanic/Latino,NA,2024-12-05_10h35.23.204,dissOSARI,2023.2.3,Win32,59.88023952,,,,,,,,,,,,,,,,,,,,,,,,,,,,,,,,625.9727,628.8752,628.8752,629.8754,,,,,,0,0.5,,,,,,,,,,,,,,,,,,,,,,,,,,,,,,,,,,,,,,,,,,,,,,,,,,,,,0,5,5,40,1,,,,,,,,,,,,,,,,,,
,,,,,,,,Cascade,1,Female,Hispanic/Latino,NA,2024-12-05_10h35.23.204,dissOSARI,2023.2.3,Win32,59.88023952,,,,,,,,,,,,,,,,,,,,,,,,,,,,,,,,629.8758,631.044,631.044,632.044,,,,,,1,0.5,,,,,,,,,,,,,,,,,,,,,,,,,,,,,,,,,,,,,,,,,,,,,,,,,,,,,0,6,6,69,1,,,,,,,,,,,,,,,,,,
,,,,,,,,Cascade,1,Female,Hispanic/Latino,NA,2024-12-05_10h35.23.204,dissOSARI,2023.2.3,Win32,59.88023952,,,,,,,,,,,,,,,,,,,,,,,,,,,,,,,,632.0452,633.1124,633.1124,634.1124,,,,,,0,0.5,,,,,,,,,,,,,,,,,,,,,,,,,,,,,,,,,,,,,,,,,,,,,,,,,,,,,0,7,7,6,1,,,,,,,,,,,,,,,,,,
,,,,,,,,Cascade,1,Female,Hispanic/Latino,NA,2024-12-05_10h35.23.204,dissOSARI,2023.2.3,Win32,59.88023952,,,,,,,,,,,,,,,,,,,,,,,,,,,,,,,,634.113,635.1691,635.1691,636.164,,,,,,0,0.5,,,,,,,,,,,,,,,,,,,,,,,,,,,,,,,,,,,,,,,,,,,,,,,,,,,,,0,8,8,36,1,,,,,,,,,,,,,,,,,,
,,,,,,,,Cascade,1,Female,Hispanic/Latino,NA,2024-12-05_10h35.23.204,dissOSARI,2023.2.3,Win32,59.88023952,,,,,,,,,,,,,,,,,,,,,,,,,,,,,,,,636.1645,637.2655,637.2655,638.2659,,,,,,0,0.5,,,,,,,,,,,,,,,,,,,,,,,,,,,,,,,,,,,,,,,,,,,,,,,,,,,,,0,9,9,22,1,,,,,,,,,,,,,,,,,,
,,,,,,,,Cascade,1,Female,Hispanic/Latino,NA,2024-12-05_10h35.23.204,dissOSARI,2023.2.3,Win32,59.88023952,,,,,,,,,,,,,,,,,,,,,,,,,,,,,,,,638.2663,639.2673,639.2673,640.2669,,,,,,0,0.5,,,,,,,,,,,,,,,,,,,,,,,,,,,,,,,,,,,,,,,,,,,,,,,,,,,,,0,10,10,33,1,,,,,,,,,,,,,,,,,,
,,,,,,,,Cascade,1,Female,Hispanic/Latino,NA,2024-12-05_10h35.23.204,dissOSARI,2023.2.3,Win32,59.88023952,,,,,,,,,,,,,,,,,,,,,,,,,,,,,,,,640.2671,641.1686,641.1686,642.1692,,,,,,1,0.5,,,,,,,,,,,,,,,,,,,,,,,,,,,,,,,,,,,,,,,,,,,,,,,,,,,,,0,11,11,61,1,,,,,,,,,,,,,,,,,,
,,,,,,,,Cascade,1,Female,Hispanic/Latino,NA,2024-12-05_10h35.23.204,dissOSARI,2023.2.3,Win32,59.88023952,,,,,,,,,,,,,,,,,,,,,,,,,,,,,,,,642.1695,643.1705,643.1705,644.1707,,,,,,0,0.5,,,,,,,,,,,,,,,,,,,,,,,,,,,,,,,,,,,,,,,,,,,,,,,,,,,,,0,12,12,47,1,,,,,,,,,,,,,,,,,,
,,,,,,,,Cascade,1,Female,Hispanic/Latino,NA,2024-12-05_10h35.23.204,dissOSARI,2023.2.3,Win32,59.88023952,,,,,,,,,,,,,,,,,,,,,,,,,,,,,,,,644.171,645.189,645.189,646.1892,,,,,,0,0.5,,,,,,,,,,,,,,,,,,,,,,,,,,,,,,,,,,,,,,,,,,,,,,,,,,,,,0,13,13,39,1,,,,,,,,,,,,,,,,,,
,,,,,,,,Cascade,1,Female,Hispanic/Latino,NA,2024-12-05_10h35.23.204,dissOSARI,2023.2.3,Win32,59.88023952,,,,,,,,,,,,,,,,,,,,,,,,,,,,,,,,646.1906,647.1237,647.1237,648.1239,,,,,,0,0.5,,,,,,,,,,,,,,,,,,,,,,,,,,,,,,,,,,,,,,,,,,,,,,,,,,,,,0,14,14,55,1,,,,,,,,,,,,,,,,,,
,,,,,,,,Cascade,1,Female,Hispanic/Latino,NA,2024-12-05_10h35.23.204,dissOSARI,2023.2.3,Win32,59.88023952,,,,,,,,,,,,,,,,,,,,,,,,,,,,,,,,648.1248,649.3595,649.3597,650.3586,,,,,,1,0.5,,,,,,,,,,,,,,,,,,,,,,,,,,,,,,,,,,,,,,,,,,,,,,,,,,,,,0,15,15,76,1,,,,,,,,,,,,,,,,,,
,,,,,,,,Cascade,1,Female,Hispanic/Latino,NA,2024-12-05_10h35.23.204,dissOSARI,2023.2.3,Win32,59.88023952,,,,,,,,,,,,,,,,,,,,,,,,,,,,,,,,650.359,651.3105,651.3105,652.3108,,,,,,0,0.5,,,,,,,,,,,,,,,,,,,,,,,,,,,,,,,,,,,,,,,,,,,,,,,,,,,,,0,16,16,30,1,,,,,,,,,,,,,,,,,,
,,,,,,,,Cascade,1,Female,Hispanic/Latino,NA,2024-12-05_10h35.23.204,dissOSARI,2023.2.3,Win32,59.88023952,,,,,,,,,,,,,,,,,,,,,,,,,,,,,,,,652.3112,653.4622,653.4623,654.4625,,,,,,1,0.5,,,,,,,,,,,,,,,,,,,,,,,,,,,,,,,,,,,,,,,,,,,,,,,,,,,,,0,17,17,77,1,,,,,,,,,,,,,,,,,,
,,,,,,,,Cascade,1,Female,Hispanic/Latino,NA,2024-12-05_10h35.23.204,dissOSARI,2023.2.3,Win32,59.88023952,,,,,,,,,,,,,,,,,,,,,,,,,,,,,,,,654.4634,655.3639,655.3639,656.3641,,,,,,0,0.5,,,,,,,,,,,,,,,,,,,,,,,,,,,,,,,,,,,,,,,,,,,,,,,,,,,,,0,18,18,28,1,,,,,,,,,,,,,,,,,,
,,,,,,,,Cascade,1,Female,Hispanic/Latino,NA,2024-12-05_10h35.23.204,dissOSARI,2023.2.3,Win32,59.88023952,,,,,,,,,,,,,,,,,,,,,,,,,,,,,,,,656.3648,657.2654,657.2655,658.2657,,,,,,0,0.5,,,,,,,,,,,,,,,,,,,,,,,,,,,,,,,,,,,,,,,,,,,,,,,,,,,,,0,19,19,5,1,,,,,,,,,,,,,,,,,,
,,,,,,,,Cascade,1,Female,Hispanic/Latino,NA,2024-12-05_10h35.23.204,dissOSARI,2023.2.3,Win32,59.88023952,,,,,,,,,,,,,,,,,,,,,,,,,,,,,,,,658.2662,659.2003,659.2004,660.2003,,,,,,0,0.5,,,,,,,,,,,,,,,,,,,,,,,,,,,,,,,,,,,,,,,,,,,,,,,,,,,,,0,20,20,58,1,,,,,,,,,,,,,,,,,,
,,,,,,,,Cascade,1,Female,Hispanic/Latino,NA,2024-12-05_10h35.23.204,dissOSARI,2023.2.3,Win32,59.88023952,,,,,,,,,,,,,,,,,,,,,,,,,,,,,,,,660.2005,661.2516,661.2516,662.2525,,,,,,1,0.5,,,,,,,,,,,,,,,,,,,,,,,,,,,,,,,,,,,,,,,,,,,,,,,,,,,,,0,21,21,71,1,,,,,,,,,,,,,,,,,,
,,,,,,,,Cascade,1,Female,Hispanic/Latino,NA,2024-12-05_10h35.23.204,dissOSARI,2023.2.3,Win32,59.88023952,,,,,,,,,,,,,,,,,,,,,,,,,,,,,,,,662.2529,663.354,663.354,664.3541,,,,,,0,0.5,,,,,,,,,,,,,,,,,,,,,,,,,,,,,,,,,,,,,,,,,,,,,,,,,,,,,0,22,22,17,1,,,,,,,,,,,,,,,,,,
,,,,,,,,Cascade,1,Female,Hispanic/Latino,NA,2024-12-05_10h35.23.204,dissOSARI,2023.2.3,Win32,59.88023952,,,,,,,,,,,,,,,,,,,,,,,,,,,,,,,,664.355,665.2888,665.2888,666.2898,,,,,,0,0.5,,,,,,,,,,,,,,,,,,,,,,,,,,,,,,,,,,,,,,,,,,,,,,,,,,,,,0,23,23,13,1,,,,,,,,,,,,,,,,,,
,,,,,,,,Cascade,1,Female,Hispanic/Latino,NA,2024-12-05_10h35.23.204,dissOSARI,2023.2.3,Win32,59.88023952,,,,,,,,,,,,,,,,,,,,,,,,,,,,,,,,666.2903,667.1572,667.1572,668.1574,,,,,,0,0.5,,,,,,,,,,,,,,,,,,,,,,,,,,,,,,,,,,,,,,,,,,,,,,,,,,,,,0,24,24,14,1,,,,,,,,,,,,,,,,,,
,,,,,,,,Cascade,1,Female,Hispanic/Latino,NA,2024-12-05_10h35.23.204,dissOSARI,2023.2.3,Win32,59.88023952,,,,,,,,,,,,,,,,,,,,,,,,,,,,,,,,668.158,668.9919,668.9919,669.9922,,,,,,0,0.5,,,,,,,,,,,,,,,,,,,,,,,,,,,,,,,,,,,,,,,,,,,,,,,,,,,,,0,25,25,29,1,,,,,,,,,,,,,,,,,,
,,,,,,,,Cascade,1,Female,Hispanic/Latino,NA,2024-12-05_10h35.23.204,dissOSARI,2023.2.3,Win32,59.88023952,,,,,,,,,,,,,,,,,,,,,,,,,,,,,,,,669.993,670.7934,670.7934,671.7937,,,,,,0,0.5,,,,,,,,,,,,,,,,,,,,,,,,,,,,,,,,,,,,,,,,,,,,,,,,,,,,,0,26,26,50,1,,,,,,,,,,,,,,,,,,
,,,,,,,,Cascade,1,Female,Hispanic/Latino,NA,2024-12-05_10h35.23.204,dissOSARI,2023.2.3,Win32,59.88023952,,,,,,,,,,,,,,,,,,,,,,,,,,,,,,,,671.7943,672.6448,672.6448,673.6453,,,,,,0,0.5,,,,,,,,,,,,,,,,,,,,,,,,,,,,,,,,,,,,,,,,,,,,,,,,,,,,,0,27,27,19,1,,,,,,,,,,,,,,,,,,
,,,,,,,,Cascade,1,Female,Hispanic/Latino,NA,2024-12-05_10h35.23.204,dissOSARI,2023.2.3,Win32,59.88023952,,,,,,,,,,,,,,,,,,,,,,,,,,,,,,,,673.6461,674.6631,674.6631,675.6633,,,,,,1,0.5,,,,,,,,,,,,,,,,,,,,,,,,,,,,,,,,,,,,,,,,,,,,,,,,,,,,,0,28,28,65,1,,,,,,,,,,,,,,,,,,
,,,,,,,,Cascade,1,Female,Hispanic/Latino,NA,2024-12-05_10h35.23.204,dissOSARI,2023.2.3,Win32,59.88023952,,,,,,,,,,,,,,,,,,,,,,,,,,,,,,,,675.6637,676.7148,676.7149,677.7152,,,,,,0,0.5,,,,,,,,,,,,,,,,,,,,,,,,,,,,,,,,,,,,,,,,,,,,,,,,,,,,,0,29,29,7,1,,,,,,,,,,,,,,,,,,
,,,,,,,,Cascade,1,Female,Hispanic/Latino,NA,2024-12-05_10h35.23.204,dissOSARI,2023.2.3,Win32,59.88023952,,,,,,,,,,,,,,,,,,,,,,,,,,,,,,,,677.7155,678.5166,678.5166,679.5166,,,,,,0,0.5,,,,,,,,,,,,,,,,,,,,,,,,,,,,,,,,,,,,,,,,,,,,,,,,,,,,,0,30,30,38,1,,,,,,,,,,,,,,,,,,
,,,,,,,,Cascade,1,Female,Hispanic/Latino,NA,2024-12-05_10h35.23.204,dissOSARI,2023.2.3,Win32,59.88023952,,,,,,,,,,,,,,,,,,,,,,,,,,,,,,,,679.5169,680.3671,680.3671,681.3677,,,,,,0,0.5,,,,,,,,,,,,,,,,,,,,,,,,,,,,,,,,,,,,,,,,,,,,,,,,,,,,,0,31,31,15,1,,,,,,,,,,,,,,,,,,
,,,,,,,,Cascade,1,Female,Hispanic/Latino,NA,2024-12-05_10h35.23.204,dissOSARI,2023.2.3,Win32,59.88023952,,,,,,,,,,,,,,,,,,,,,,,,,,,,,,,,681.3681,682.3861,682.3861,683.3865,,,,,,1,0.5,,,,,,,,,,,,,,,,,,,,,,,,,,,,,,,,,,,,,,,,,,,,,,,,,,,,,0,32,32,64,1,,,,,,,,,,,,,,,,,,
,,,,,,,,Cascade,1,Female,Hispanic/Latino,NA,2024-12-05_10h35.23.204,dissOSARI,2023.2.3,Win32,59.88023952,,,,,,,,,,,,,,,,,,,,,,,,,,,,,,,,683.3869,684.4713,684.4714,685.4715,,,,,,0,0.5,,,,,,,,,,,,,,,,,,,,,,,,,,,,,,,,,,,,,,,,,,,,,,,,,,,,,0,33,33,11,1,,,,,,,,,,,,,,,,,,
,,,,,,,,Cascade,1,Female,Hispanic/Latino,NA,2024-12-05_10h35.23.204,dissOSARI,2023.2.3,Win32,59.88023952,,,,,,,,,,,,,,,,,,,,,,,,,,,,,,,,685.472,686.3396,686.3397,687.3399,,,,,,0,0.5,,,,,,,,,,,,,,,,,,,,,,,,,,,,,,,,,,,,,,,,,,,,,,,,,,,,,0,34,34,52,1,,,,,,,,,,,,,,,,,,
,,,,,,,,Cascade,1,Female,Hispanic/Latino,NA,2024-12-05_10h35.23.204,dissOSARI,2023.2.3,Win32,59.88023952,,,,,,,,,,,,,,,,,,,,,,,,,,,,,,,,687.3403,688.1579,688.158,689.1578,,,,,,0,0.5,,,,,,,,,,,,,,,,,,,,,,,,,,,,,,,,,,,,,,,,,,,,,,,,,,,,,0,35,35,42,1,,,,,,,,,,,,,,,,,,
,,,,,,,,Cascade,1,Female,Hispanic/Latino,NA,2024-12-05_10h35.23.204,dissOSARI,2023.2.3,Win32,59.88023952,,,,,,,,,,,,,,,,,,,,,,,,,,,,,,,,689.1582,689.9926,689.9927,690.9929,,,,,,0,0.5,,,,,,,,,,,,,,,,,,,,,,,,,,,,,,,,,,,,,,,,,,,,,,,,,,,,,0,36,36,8,1,,,,,,,,,,,,,,,,,,
,,,,,,,,Cascade,1,Female,Hispanic/Latino,NA,2024-12-05_10h35.23.204,dissOSARI,2023.2.3,Win32,59.88023952,,,,,,,,,,,,,,,,,,,,,,,,,,,,,,,,690.9936,691.7608,691.7609,692.761,,,,,,0,0.5,,,,,,,,,,,,,,,,,,,,,,,,,,,,,,,,,,,,,,,,,,,,,,,,,,,,,0,37,37,4,1,,,,,,,,,,,,,,,,,,
,,,,,,,,Cascade,1,Female,Hispanic/Latino,NA,2024-12-05_10h35.23.204,dissOSARI,2023.2.3,Win32,59.88023952,,,,,,,,,,,,,,,,,,,,,,,,,,,,,,,,692.7621,693.5448,693.5448,694.5456,,,,,,0,0.5,,,,,,,,,,,,,,,,,,,,,,,,,,,,,,,,,,,,,,,,,,,,,,,,,,,,,0,38,38,54,1,,,,,,,,,,,,,,,,,,
,,,,,,,,Cascade,1,Female,Hispanic/Latino,NA,2024-12-05_10h35.23.204,dissOSARI,2023.2.3,Win32,59.88023952,,,,,,,,,,,,,,,,,,,,,,,,,,,,,,,,694.5465,695.4971,695.4971,696.4972,,,,,,1,0.5,,,,,,,,,,,,,,,,,,,,,,,,,,,,,,,,,,,,,,,,,,,,,,,,,,,,,0,39,39,72,1,,,,,,,,,,,,,,,,,,
,,,,,,,,Cascade,1,Female,Hispanic/Latino,NA,2024-12-05_10h35.23.204,dissOSARI,2023.2.3,Win32,59.88023952,,,,,,,,,,,,,,,,,,,,,,,,,,,,,,,,696.4978,697.6153,697.6153,698.616,,,,,,0,0.5,,,,,,,,,,,,,,,,,,,,,,,,,,,,,,,,,,,,,,,,,,,,,,,,,,,,,0,40,40,49,1,,,,,,,,,,,,,,,,,,
,,,,,,,,Cascade,1,Female,Hispanic/Latino,NA,2024-12-05_10h35.23.204,dissOSARI,2023.2.3,Win32,59.88023952,,,,,,,,,,,,,,,,,,,,,,,,,,,,,,,,698.6167,699.4169,699.4169,700.4166,,,,,,0,0.5,,,,,,,,,,,,,,,,,,,,,,,,,,,,,,,,,,,,,,,,,,,,,,,,,,,,,0,41,41,23,1,,,,,,,,,,,,,,,,,,
,,,,,,,,Cascade,1,Female,Hispanic/Latino,NA,2024-12-05_10h35.23.204,dissOSARI,2023.2.3,Win32,59.88023952,,,,,,,,,,,,,,,,,,,,,,,,,,,,,,,,700.4169,701.2519,701.252,702.252,,,,,,1,0.5,,,,,,,,,,,,,,,,,,,,,,,,,,,,,,,,,,,,,,,,,,,,,,,,,,,,,0,42,42,70,1,,,,,,,,,,,,,,,,,,
,,,,,,,,Cascade,1,Female,Hispanic/Latino,NA,2024-12-05_10h35.23.204,dissOSARI,2023.2.3,Win32,59.88023952,,,,,,,,,,,,,,,,,,,,,,,,,,,,,,,,702.2524,703.1865,703.1865,704.1869,,,,,,0,0.5,,,,,,,,,,,,,,,,,,,,,,,,,,,,,,,,,,,,,,,,,,,,,,,,,,,,,0,43,43,16,1,,,,,,,,,,,,,,,,,,
,,,,,,,,Cascade,1,Female,Hispanic/Latino,NA,2024-12-05_10h35.23.204,dissOSARI,2023.2.3,Win32,59.88023952,,,,,,,,,,,,,,,,,,,,,,,,,,,,,,,,704.1875,705.0051,705.0051,706.0052,,,,,,0,0.5,,,,,,,,,,,,,,,,,,,,,,,,,,,,,,,,,,,,,,,,,,,,,,,,,,,,,0,44,44,2,1,,,,,,,,,,,,,,,,,,
,,,,,,,,Cascade,1,Female,Hispanic/Latino,NA,2024-12-05_10h35.23.204,dissOSARI,2023.2.3,Win32,59.88023952,,,,,,,,,,,,,,,,,,,,,,,,,,,,,,,,706.0057,706.8234,706.8234,707.8229,,,,,,0,0.5,,,,,,,,,,,,,,,,,,,,,,,,,,,,,,,,,,,,,,,,,,,,,,,,,,,,,0,45,45,21,1,,,,,,,,,,,,,,,,,,
,,,,,,,,Cascade,1,Female,Hispanic/Latino,NA,2024-12-05_10h35.23.204,dissOSARI,2023.2.3,Win32,59.88023952,,,,,,,,,,,,,,,,,,,,,,,,,,,,,,,,707.8234,708.608,708.6081,709.6085,,,,,,0,0.5,,,,,,,,,,,,,,,,,,,,,,,,,,,,,,,,,,,,,,,,,,,,,,,,,,,,,0,46,46,57,1,,,,,,,,,,,,,,,,,,
,,,,,,,,Cascade,1,Female,Hispanic/Latino,NA,2024-12-05_10h35.23.204,dissOSARI,2023.2.3,Win32,59.88023952,,,,,,,,,,,,,,,,,,,,,,,,,,,,,,,,709.6099,710.392,710.392,711.3929,,,,,,1,0.5,,,,,,,,,,,,,,,,,,,,,,,,,,,,,,,,,,,,,,,,,,,,,,,,,,,,,0,47,47,67,1,,,,,,,,,,,,,,,,,,
,,,,,,,,Cascade,1,Female,Hispanic/Latino,NA,2024-12-05_10h35.23.204,dissOSARI,2023.2.3,Win32,59.88023952,,,,,,,,,,,,,,,,,,,,,,,,,,,,,,,,711.3934,712.5113,712.5113,713.5113,,,,,,1,0.5,,,,,,,,,,,,,,,,,,,,,,,,,,,,,,,,,,,,,,,,,,,,,,,,,,,,,0,48,48,68,1,,,,,,,,,,,,,,,,,,
,,,,,,,,Cascade,1,Female,Hispanic/Latino,NA,2024-12-05_10h35.23.204,dissOSARI,2023.2.3,Win32,59.88023952,,,,,,,,,,,,,,,,,,,,,,,,,,,,,,,,713.5117,714.5128,714.5128,715.5128,,,,,,0,0.5,,,,,,,,,,,,,,,,,,,,,,,,,,,,,,,,,,,,,,,,,,,,,,,,,,,,,0,49,49,51,1,,,,,,,,,,,,,,,,,,
,,,,,,,,Cascade,1,Female,Hispanic/Latino,NA,2024-12-05_10h35.23.204,dissOSARI,2023.2.3,Win32,59.88023952,,,,,,,,,,,,,,,,,,,,,,,,,,,,,,,,715.513,716.3475,716.3475,717.3481,,,,,,0,0.5,,,,,,,,,,,,,,,,,,,,,,,,,,,,,,,,,,,,,,,,,,,,,,,,,,,,,0,50,50,10,1,,,,,,,,,,,,,,,,,,
,,,,,,,,Cascade,1,Female,Hispanic/Latino,NA,2024-12-05_10h35.23.204,dissOSARI,2023.2.3,Win32,59.88023952,,,,,,,,,,,,,,,,,,,,,,,,,,,,,,,,717.3491,718.116,718.116,719.1158,,,,,,0,0.5,,,,,,,,,,,,,,,,,,,,,,,,,,,,,,,,,,,,,,,,,,,,,,,,,,,,,0,51,51,27,1,,,,,,,,,,,,,,,,,,
,,,,,,,,Cascade,1,Female,Hispanic/Latino,NA,2024-12-05_10h35.23.204,dissOSARI,2023.2.3,Win32,59.88023952,,,,,,,,,,,,,,,,,,,,,,,,,,,,,,,,719.1163,719.9337,719.9337,720.9342,,,,,,0,0.5,,,,,,,,,,,,,,,,,,,,,,,,,,,,,,,,,,,,,,,,,,,,,,,,,,,,,0,52,52,25,1,,,,,,,,,,,,,,,,,,
,,,,,,,,Cascade,1,Female,Hispanic/Latino,NA,2024-12-05_10h35.23.204,dissOSARI,2023.2.3,Win32,59.88023952,,,,,,,,,,,,,,,,,,,,,,,,,,,,,,,,720.9348,721.7691,721.7691,722.7691,,,,,,0,0.5,,,,,,,,,,,,,,,,,,,,,,,,,,,,,,,,,,,,,,,,,,,,,,,,,,,,,0,53,53,41,1,,,,,,,,,,,,,,,,,,
,,,,,,,,Cascade,1,Female,Hispanic/Latino,NA,2024-12-05_10h35.23.204,dissOSARI,2023.2.3,Win32,59.88023952,,,,,,,,,,,,,,,,,,,,,,,,,,,,,,,,722.7698,723.5371,723.5371,724.5376,,,,,,0,0.5,,,,,,,,,,,,,,,,,,,,,,,,,,,,,,,,,,,,,,,,,,,,,,,,,,,,,0,54,54,34,1,,,,,,,,,,,,,,,,,,
,,,,,,,,Cascade,1,Female,Hispanic/Latino,NA,2024-12-05_10h35.23.204,dissOSARI,2023.2.3,Win32,59.88023952,,,,,,,,,,,,,,,,,,,,,,,,,,,,,,,,724.538,725.372,725.372,726.3722,,,,,,0,0.5,,,,,,,,,,,,,,,,,,,,,,,,,,,,,,,,,,,,,,,,,,,,,,,,,,,,,0,55,55,48,1,,,,,,,,,,,,,,,,,,
,,,,,,,,Cascade,1,Female,Hispanic/Latino,NA,2024-12-05_10h35.23.204,dissOSARI,2023.2.3,Win32,59.88023952,,,,,,,,,,,,,,,,,,,,,,,,,,,,,,,,726.3729,727.3906,727.3906,728.3905,,,,,,1,0.5,,,,,,,,,,,,,,,,,,,,,,,,,,,,,,,,,,,,,,,,,,,,,,,,,,,,,0,56,56,60,1,,,,,,,,,,,,,,,,,,
,,,,,,,,Cascade,1,Female,Hispanic/Latino,NA,2024-12-05_10h35.23.204,dissOSARI,2023.2.3,Win32,59.88023952,,,,,,,,,,,,,,,,,,,,,,,,,,,,,,,,728.3911,729.692,729.6921,730.6926,,,,,,1,0.5,,,,,,,,,,,,,,,,,,,,,,,,,,,,,,,,,,,,,,,,,,,,,,,,,,,,,0,57,57,79,1,,,,,,,,,,,,,,,,,,
,,,,,,,,Cascade,1,Female,Hispanic/Latino,NA,2024-12-05_10h35.23.204,dissOSARI,2023.2.3,Win32,59.88023952,,,,,,,,,,,,,,,,,,,,,,,,,,,,,,,,730.6936,731.8601,731.8601,732.8607,,,,,,0,0.5,,,,,,,,,,,,,,,,,,,,,,,,,,,,,,,,,,,,,,,,,,,,,,,,,,,,,0,58,58,1,1,,,,,,,,,,,,,,,,,,
,,,,,,,,Cascade,1,Female,Hispanic/Latino,NA,2024-12-05_10h35.23.204,dissOSARI,2023.2.3,Win32,59.88023952,,,,,,,,,,,,,,,,,,,,,,,,,,,,,,,,732.8611,733.6953,733.6953,734.6956,,,,,,0,0.5,,,,,,,,,,,,,,,,,,,,,,,,,,,,,,,,,,,,,,,,,,,,,,,,,,,,,0,59,59,20,1,,,,,,,,,,,,,,,,,,
,,,,,,,,Cascade,1,Female,Hispanic/Latino,NA,2024-12-05_10h35.23.204,dissOSARI,2023.2.3,Win32,59.88023952,,,,,,,,,,,,,,,,,,,,,,,,,,,,,,,,734.6962,735.5302,735.5302,736.5304,,,,,,0,0.5,,,,,,,,,,,,,,,,,,,,,,,,,,,,,,,,,,,,,,,,,,,,,,,,,,,,,0,60,60,31,1,,,,,,,,,,,,,,,,,,
,,,,,,,,Cascade,1,Female,Hispanic/Latino,NA,2024-12-05_10h35.23.204,dissOSARI,2023.2.3,Win32,59.88023952,,,,,,,,,,,,,,,,,,,,,,,,,,,,,,,,736.5314,737.5485,737.5486,738.549,,,,,,1,0.5,,,,,,,,,,,,,,,,,,,,,,,,,,,,,,,,,,,,,,,,,,,,,,,,,,,,,0,61,61,75,1,,,,,,,,,,,,,,,,,,
,,,,,,,,Cascade,1,Female,Hispanic/Latino,NA,2024-12-05_10h35.23.204,dissOSARI,2023.2.3,Win32,59.88023952,,,,,,,,,,,,,,,,,,,,,,,,,,,,,,,,738.5495,739.567,739.567,740.567,,,,,,0,0.5,,,,,,,,,,,,,,,,,,,,,,,,,,,,,,,,,,,,,,,,,,,,,,,,,,,,,0,62,62,45,1,,,,,,,,,,,,,,,,,,
,,,,,,,,Cascade,1,Female,Hispanic/Latino,NA,2024-12-05_10h35.23.204,dissOSARI,2023.2.3,Win32,59.88023952,,,,,,,,,,,,,,,,,,,,,,,,,,,,,,,,740.5671,741.3847,741.3848,742.3854,,,,,,0,0.5,,,,,,,,,,,,,,,,,,,,,,,,,,,,,,,,,,,,,,,,,,,,,,,,,,,,,0,63,63,0,1,,,,,,,,,,,,,,,,,,
,,,,,,,,Cascade,1,Female,Hispanic/Latino,NA,2024-12-05_10h35.23.204,dissOSARI,2023.2.3,Win32,59.88023952,,,,,,,,,,,,,,,,,,,,,,,,,,,,,,,,742.3863,743.4037,743.4037,744.4038,,,,,,1,0.5,,,,,,,,,,,,,,,,,,,,,,,,,,,,,,,,,,,,,,,,,,,,,,,,,,,,,0,64,64,74,1,,,,,,,,,,,,,,,,,,
,,,,,,,,Cascade,1,Female,Hispanic/Latino,NA,2024-12-05_10h35.23.204,dissOSARI,2023.2.3,Win32,59.88023952,,,,,,,,,,,,,,,,,,,,,,,,,,,,,,,,744.4048,745.5727,745.5727,746.5721,,,,,,1,0.5,,,,,,,,,,,,,,,,,,,,,,,,,,,,,,,,,,,,,,,,,,,,,,,,,,,,,0,65,65,78,1,,,,,,,,,,,,,,,,,,
,,,,,,,,Cascade,1,Female,Hispanic/Latino,NA,2024-12-05_10h35.23.204,dissOSARI,2023.2.3,Win32,59.88023952,,,,,,,,,,,,,,,,,,,,,,,,,,,,,,,,746.5727,747.7072,747.7072,748.7072,,,,,,0,0.5,,,,,,,,,,,,,,,,,,,,,,,,,,,,,,,,,,,,,,,,,,,,,,,,,,,,,0,66,66,3,1,,,,,,,,,,,,,,,,,,
,,,,,,,,Cascade,1,Female,Hispanic/Latino,NA,2024-12-05_10h35.23.204,dissOSARI,2023.2.3,Win32,59.88023952,,,,,,,,,,,,,,,,,,,,,,,,,,,,,,,,748.708,749.5583,749.5583,750.5583,,,,,,0,0.5,,,,,,,,,,,,,,,,,,,,,,,,,,,,,,,,,,,,,,,,,,,,,,,,,,,,,0,67,67,53,1,,,,,,,,,,,,,,,,,,
,,,,,,,,Cascade,1,Female,Hispanic/Latino,NA,2024-12-05_10h35.23.204,dissOSARI,2023.2.3,Win32,59.88023952,,,,,,,,,,,,,,,,,,,,,,,,,,,,,,,,750.5586,751.3929,751.3929,752.3933,,,,,,0,0.5,,,,,,,,,,,,,,,,,,,,,,,,,,,,,,,,,,,,,,,,,,,,,,,,,,,,,0,68,68,37,1,,,,,,,,,,,,,,,,,,
,,,,,,,,Cascade,1,Female,Hispanic/Latino,NA,2024-12-05_10h35.23.204,dissOSARI,2023.2.3,Win32,59.88023952,,,,,,,,,,,,,,,,,,,,,,,,,,,,,,,,752.3938,753.4117,753.4117,754.4121,,,,,,1,0.5,,,,,,,,,,,,,,,,,,,,,,,,,,,,,,,,,,,,,,,,,,,,,,,,,,,,,0,69,69,73,1,,,,,,,,,,,,,,,,,,
,,,,,,,,Cascade,1,Female,Hispanic/Latino,NA,2024-12-05_10h35.23.204,dissOSARI,2023.2.3,Win32,59.88023952,,,,,,,,,,,,,,,,,,,,,,,,,,,,,,,,754.413,755.4969,755.4969,756.4969,,,,,,0,0.5,,,,,,,,,,,,,,,,,,,,,,,,,,,,,,,,,,,,,,,,,,,,,,,,,,,,,0,70,70,12,1,,,,,,,,,,,,,,,,,,
,,,,,,,,Cascade,1,Female,Hispanic/Latino,NA,2024-12-05_10h35.23.204,dissOSARI,2023.2.3,Win32,59.88023952,,,,,,,,,,,,,,,,,,,,,,,,,,,,,,,,756.4975,757.3651,757.3651,758.3649,,,,,,0,0.5,,,,,,,,,,,,,,,,,,,,,,,,,,,,,,,,,,,,,,,,,,,,,,,,,,,,,0,71,71,56,1,,,,,,,,,,,,,,,,,,
,,,,,,,,Cascade,1,Female,Hispanic/Latino,NA,2024-12-05_10h35.23.204,dissOSARI,2023.2.3,Win32,59.88023952,,,,,,,,,,,,,,,,,,,,,,,,,,,,,,,,758.3655,759.0998,759.0999,760.0999,,,,,,0,0.5,,,,,,,,,,,,,,,,,,,,,,,,,,,,,,,,,,,,,,,,,,,,,,,,,,,,,0,72,72,9,1,,,,,,,,,,,,,,,,,,
,,,,,,,,Cascade,1,Female,Hispanic/Latino,NA,2024-12-05_10h35.23.204,dissOSARI,2023.2.3,Win32,59.88023952,,,,,,,,,,,,,,,,,,,,,,,,,,,,,,,,760.1005,760.9181,760.9181,761.9181,,,,,,0,0.5,,,,,,,,,,,,,,,,,,,,,,,,,,,,,,,,,,,,,,,,,,,,,,,,,,,,,0,73,73,46,1,,,,,,,,,,,,,,,,,,
,,,,,,,,Cascade,1,Female,Hispanic/Latino,NA,2024-12-05_10h35.23.204,dissOSARI,2023.2.3,Win32,59.88023952,,,,,,,,,,,,,,,,,,,,,,,,,,,,,,,,761.9185,762.7026,762.7026,763.7028,,,,,,0,0.5,,,,,,,,,,,,,,,,,,,,,,,,,,,,,,,,,,,,,,,,,,,,,,,,,,,,,0,74,74,35,1,,,,,,,,,,,,,,,,,,
,,,,,,,,Cascade,1,Female,Hispanic/Latino,NA,2024-12-05_10h35.23.204,dissOSARI,2023.2.3,Win32,59.88023952,,,,,,,,,,,,,,,,,,,,,,,,,,,,,,,,763.7032,764.5208,764.5209,765.5212,,,,,,0,0.5,,,,,,,,,,,,,,,,,,,,,,,,,,,,,,,,,,,,,,,,,,,,,,,,,,,,,0,75,75,18,1,,,,,,,,,,,,,,,,,,
,,,,,,,,Cascade,1,Female,Hispanic/Latino,NA,2024-12-05_10h35.23.204,dissOSARI,2023.2.3,Win32,59.88023952,,,,,,,,,,,,,,,,,,,,,,,,,,,,,,,,765.5218,766.3551,766.3551,767.3558,,,,,,0,0.5,,,,,,,,,,,,,,,,,,,,,,,,,,,,,,,,,,,,,,,,,,,,,,,,,,,,,0,76,76,24,1,,,,,,,,,,,,,,,,,,
,,,,,,,,Cascade,1,Female,Hispanic/Latino,NA,2024-12-05_10h35.23.204,dissOSARI,2023.2.3,Win32,59.88023952,,,,,,,,,,,,,,,,,,,,,,,,,,,,,,,,767.3564,768.2738,768.2739,769.2742,,,,,,0,0.5,,,,,,,,,,,,,,,,,,,,,,,,,,,,,,,,,,,,,,,,,,,,,,,,,,,,,0,77,77,26,1,,,,,,,,,,,,,,,,,,
,,,,,,,,Cascade,1,Female,Hispanic/Latino,NA,2024-12-05_10h35.23.204,dissOSARI,2023.2.3,Win32,59.88023952,,,,,,,,,,,,,,,,,,,,,,,,,,,,,,,,769.2747,770.2919,770.2919,771.2925,,,,,,1,0.5,,,,,,,,,,,,,,,,,,,,,,,,,,,,,,,,,,,,,,,,,,,,,,,,,,,,,0,78,78,62,1,,,,,,,,,,,,,,,,,,
,,,,,,,,Cascade,1,Female,Hispanic/Latino,NA,2024-12-05_10h35.23.204,dissOSARI,2023.2.3,Win32,59.88023952,,,,,,,,,,,,,,,,,,,,,,,,,,,,,,,,771.2929,772.2938,772.2939,773.294,,,,,,0,0.5,,,,,,,,,,,,,,,,,,,,,,,,,,,,,,,,,,,,,,,,,,,,,,,,,,,,,0,79,79,44,1,,,,,,,,,,,,,,,,,,
,,,,,,,,Cascade,1,Female,Hispanic/Latino,NA,2024-12-05_10h35.23.204,dissOSARI,2023.2.3,Win32,59.88023952,,,,,,,,,,,,,,,,,,,,,,,,,,,,,,,,,,,,,,,,,,,,,,,,,,,,,,,,,,,,,,,,,,,,,,,,,,,,,,,,,,,,,,,,,,,,,,,,,,,,773.2945,801.956,7,0.452399086,-0.214394516,1,0,0,8.3574,EndFatigue,,,,,,,,
,,,,,,,,Cascade,1,Female,Hispanic/Latino,NA,2024-12-05_10h35.23.204,dissOSARI,2023.2.3,Win32,59.88023952,,,,,,,,,,,,,,,,,,,,,,,,,,,,,,,,,,,,,,,,,,,,,,,,,,,,,,,,,,,,,,,,,,,,,,,,,,,,,,,,,,,,,,,,,,,,,,,,,,,,,,,,,,,,,,801.9561,809.8913,0.172886519,-0.34843869,1,0,0,7.9342